timestamp,accel_x,accel_y,accel_z,magnitude
2384912.093220339,-1.6678569,-1.1557746,9.6410265,9.852256266388174
2384916.651331719,-1.7276796,-1.1509888,9.674527,9.894752381525805
2384921.2094430993,-1.797074,-1.3065279,9.875532,10.122382249153526
2384925.7675544797,-1.7851094,-1.2706342,9.447201,9.69797574623586
2384930.3256658595,-1.639142,-1.2586696,9.688885,9.906842494021653
2384934.88377724,-1.7803236,-1.5051392,9.45438,9.737571428056054
2384939.4418886197,-1.6702498,-1.3591717,9.420879,9.663852401455742
2384944.0,-1.6678569,-1.433352,9.614705,9.863001410919834
2384948.093220339,-1.7587874,-1.3400285,9.664956,9.914655010697398
2384952.651331719,-1.8425392,-1.2371335,9.688885,9.939816021616492
2384957.2094430993,-1.718108,-1.196454,9.6410265,9.865738150157963
2384961.7675544797,-1.8018597,-1.3711363,9.6410265,9.903338078918846
2384966.3256658595,-1.8903974,-1.3424214,9.507024,9.785663129378648
2384970.88377724,-1.7994668,-1.2802058,9.554882,9.806772032049071
2384975.4418886197,-1.7109293,-1.4429235,9.547704,9.806526345657096
2384980.0,-1.8162172,-1.430959,9.547704,9.823692801023087
2384984.093220339,-1.8042527,-1.3687434,9.679314,9.940719582157866
2384988.651331719,-1.74443,-1.3424214,9.66017,9.907775515673434
2384993.2094430993,-1.8138243,-1.3065279,9.652991,9.908441299762032
2384997.7675544797,-1.8784329,-1.3065279,9.667349,9.93444321545409
2385002.3256658595,-1.8186102,-1.3711363,9.681706,9.945993609647944
2385006.88377724,-1.746823,-1.3998512,9.688885,9.944117181464398
2385011.4418886197,-1.718108,-1.4118158,9.66017,9.912820152796764
2385016.0,-1.6965718,-1.3615648,9.67692,9.918416973668444
2385021.093220339,-1.6870002,-1.3424214,9.703242,9.939867715444809
2385025.651331719,-1.6582853,-1.2802058,9.67692,9.901091743487168
2385030.2094430993,-1.639142,-1.2347406,9.664956,9.880422325355752
2385034.7675544797,-1.6558924,-1.2155973,9.712814,9.927658950363929
2385039.3256658595,-1.6989647,-1.225169,9.748708,9.971199917746665
2385043.88377724,-1.6798215,-1.196454,9.719993,9.936375917105153
2385048.4418886197,-1.6271775,-1.2921704,9.753493,9.972363644602588
2385053.0,-1.6798215,-1.2849916,9.715207,9.942748650990922
2385057.093220339,-1.6176059,-1.2993491,9.67692,9.896854935674547
2385061.651331719,-1.6558924,-1.3089207,9.650599,9.87873038897546
2385066.2094430993,-1.6678569,-1.3328499,9.638634,9.872259157901174
2385070.7675544797,-1.691786,-1.2897775,9.664956,9.896314483242652
2385075.3256658595,-1.6989647,-1.2897775,9.652991,9.885860726180262
2385079.88377724,-1.7252867,-1.301742,9.650599,9.889651535345514
2385084.4418886197,-1.7348584,-1.3735292,9.624276,9.875373646373042
2385089.0,-1.7563945,-1.3998512,9.597955,9.85724328622342
2385093.093220339,-1.7348584,-1.40703,9.629062,9.884750987697897
2385097.651331719,-1.7396442,-1.4213874,9.605133,9.864344075059497
2385102.2094430993,-1.7037506,-1.4453164,9.581204,9.838250641893879
2385106.7675544797,-1.6846073,-1.4453164,9.533346,9.7883362839166
2385111.3256658595,-1.720501,-1.457281,9.530953,9.794021477011933
2385115.88377724,-1.746823,-1.3735292,9.607526,9.861162654436729
2385120.4418886197,-1.8305746,-1.3950654,9.564454,9.83747890236916
2385125.0,-1.8568966,-1.3783151,9.557275,9.833072913571046
2385130.093220339,-1.8568966,-1.3304569,9.605133,9.873031980781697
2385134.651331719,-1.8880045,-1.3352427,9.6410265,9.914475580363582
2385139.2094430993,-1.9047549,-1.3160994,9.621883,9.896506521265136
2385143.7675544797,-1.8784329,-1.2849916,9.624276,9.889711931904234
2385148.3256658595,-1.87604,-1.3328499,9.679314,9.949127320932526
2385152.88377724,-1.8114314,-1.2969562,9.67692,9.930063433232661
2385157.4418886197,-1.7898953,-1.2467052,9.681706,9.92438562889941
2385162.0,-1.7659662,-1.222776,9.705635,9.940481302177647
2385167.093220339,-1.7540016,-1.2395264,9.703242,9.938101057026111
2385171.651331719,-1.6965718,-1.2538838,9.662563,9.890182211942644
2385176.2094430993,-1.7085364,-1.2802058,9.729565,9.961047063923731
2385180.7675544797,-1.6511066,-1.2562767,9.743921,9.962348147187361
2385185.3256658595,-1.665464,-1.2682413,9.736743,9.959235441456874
2385189.88377724,-1.6989647,-1.2179902,9.765458,9.98669871022983
2385194.4418886197,-1.7085364,-1.225169,9.789387,10.01260373451656
2385199.0,-1.6630712,-1.2323477,9.710421,9.928583114785601
2385203.093220339,-1.715715,-1.2490981,9.7176,9.946641331859142
2385207.651331719,-1.7061435,-1.2682413,9.69367,9.92404150064468
2385212.2094430993,-1.6678569,-1.304135,9.710421,9.938550736115584
2385216.7675544797,-1.720501,-1.2730271,9.6410265,9.875733575893877
2385221.3256658595,-1.7085364,-1.3424214,9.617098,9.859501295040582
2385225.88377724,-1.6798215,-1.3759222,9.58599,9.82884359690473
2385230.4418886197,-1.6678569,-1.4429235,9.5500965,9.801434488126834
2385235.0,-1.6678569,-1.4453164,9.521381,9.773811041868344
2385240.093220339,-1.6199988,-1.3567789,9.56206,9.79276449931717
2385244.651331719,-1.7037506,-1.3519931,9.5500965,9.794641116894494
2385249.2094430993,-1.6965718,-1.3783151,9.5500965,9.797063414450042
2385253.7675544797,-1.6870002,-1.4142087,9.521381,9.77254583356439
2385258.3256658595,-1.7013576,-1.3926725,9.530953,9.781268806425015
2385262.88377724,-1.6630712,-1.3711363,9.538132,9.77863909850809
2385267.4418886197,-1.5793194,-1.4524952,9.612311,9.848883938495792
2385272.0,-1.6199988,-1.4261732,9.578811,9.81896054998291
2385276.093220339,-1.7252867,-1.3567789,9.643419,9.890045156127604
2385280.651331719,-1.7037506,-1.3352427,9.6410265,9.881044031305898
2385285.2094430993,-1.7252867,-1.3472073,9.664956,9.909740470280045
2385289.7675544797,-1.7228938,-1.4189945,9.619491,9.875045090337041
2385294.3256658595,-1.6965718,-1.4405307,9.645813,9.899252143529164
2385298.88377724,-1.5841051,-1.4022441,9.672134,9.900800654380777
2385303.4418886197,-1.4931747,-1.4477094,9.662563,9.88385334373884
2385308.0,-1.586498,-1.3783151,9.696064,9.921208873468395
2385312.093220339,-1.6822144,-1.4381378,9.710421,9.959435808146825
2385316.651331719,-1.7492158,-1.3256711,9.719993,9.964708911974993
2385321.2094430993,-1.7133222,-1.2562767,9.765458,9.993891837404473
2385325.7675544797,-1.7061435,-1.2754201,9.782208,10.011454211518938
2385330.3256658595,-1.823396,-1.2658484,9.715207,9.965560305243631
2385334.88377724,-1.8401463,-1.2347406,9.70085,9.950739343244404
2385339.4418886197,-1.8568966,-1.2084186,9.614705,9.866655600199215
2385344.0,-1.8210031,-1.2658484,9.7415285,9.990785853890793
2385349.093220339,-1.8592896,-1.2706342,9.715207,9.97279881175424
2385353.651331719,-1.9095407,-1.2682413,9.69367,9.961025035049463
2385358.2094430993,-1.8784329,-1.2849916,9.535739,9.803572402343645
2385362.7675544797,-1.9550059,-1.2682413,9.576418,9.8558746833949
2385367.3256658595,-2.0124357,-1.2562767,9.609919,9.898417640216964
2385371.88377724,-1.9980782,-1.2395264,9.559668,9.844592142889223
2385376.4418886197,-2.0339718,-1.2155973,9.638634,9.925622573164794
2385381.0,-2.0124357,-1.2658484,9.617098,9.90660605656756
2385385.093220339,-1.9741492,-1.277813,9.662563,9.944606319799625
2385389.651331719,-1.9861137,-1.2323477,9.621883,9.901715050874367
2385394.2094430993,-1.9885067,-1.2945633,9.511809,9.803293501988643
2385398.7675544797,-1.9885067,-1.4189945,9.5405245,9.848315186978704
2385403.3256658595,-1.9238981,-1.3998512,9.538132,9.83040840101514
2385407.88377724,-1.9334698,-1.3759222,9.6003475,9.88929418556861
2385412.4418886197,-1.9717562,-1.2802058,9.588383,9.872377523032691
2385417.0,-1.8545038,-1.2299547,9.583597,9.838562108696348
2385422.093220339,-1.9286839,-1.2945633,9.674527,9.949481815529644
2385426.651331719,-1.9286839,-1.304135,9.66017,9.936773828222329
2385431.2094430993,-1.9837208,-1.2179902,9.679314,9.95528843631588
2385435.7675544797,-2.0387578,-1.1844895,9.631455,9.91586981357138
2385440.3256658595,-2.0890088,-1.251491,9.588383,9.892789093286455
2385444.88377724,-2.1536174,-1.2658484,9.617098,9.93624748176943
2385449.4418886197,-2.0890088,-1.2849916,9.631455,9.93881716280026
2385454.0,-2.1009734,-1.1342385,9.672134,9.962467682072841
2385459.093220339,-2.0459363,-1.1820966,9.624276,9.910090627212512
2385463.651331719,-1.9358627,-1.2155973,9.5500965,9.819856635833888
2385468.2094430993,-2.0435436,-1.2873845,9.624276,9.922707182020298
2385472.7675544797,-2.0914016,-1.277813,9.6410265,9.947671018341621
2385477.3256658595,-1.978935,-1.2825987,9.650599,9.934551032546347
2385481.88377724,-1.9621847,-1.277813,9.636241,9.916658483076045
2385486.4418886197,-1.9191123,-1.2108115,9.686492,9.94872774653159
2385491.0,-1.8449322,-1.2203832,9.672134,9.92185900380544
2385495.093220339,-1.7875023,-1.3328499,9.688885,9.942139904047837
2385499.651331719,-1.7516087,-1.3472073,9.657777,9.907358736253471
2385504.2094430993,-1.7898953,-1.40703,9.657777,9.922505489421061
2385508.7675544797,-1.7563945,-1.4381378,9.719993,9.981554282348421
2385513.3256658595,-1.6534995,-1.4907818,9.801352,10.051019450762967
2385517.88377724,-1.5841051,-1.4788172,9.779816,10.017039995563453
2385522.4418886197,-1.5936768,-1.3783151,9.743921,9.969130088026098
2385527.0,-1.7252867,-1.433352,9.698457,9.95445530071585
2385531.093220339,-1.74443,-1.3926725,9.645813,9.90072124383498
2385535.651331719,-1.742037,-1.5123179,9.688885,9.959733474508965
2385540.2094430993,-1.7659662,-1.5003533,9.679314,9.952829555204858
2385544.7675544797,-1.8401463,-1.5171037,9.621883,9.913040628770084
2385549.3256658595,-1.9286839,-1.4883888,9.636241,9.939429732945731
2385553.88377724,-2.0196145,-1.3974583,9.631455,9.93965079094201
2385558.4418886197,-2.010043,-1.354386,9.605133,9.906220987164277
2385563.0,-2.108152,-1.3472073,9.5907755,9.91172270877659
2385568.093220339,-2.1990826,-1.3113136,9.490273,9.829587440665895
2385572.651331719,-2.290013,-1.3256711,9.492666,9.85455585975848
2385577.2094430993,-2.3737648,-1.2849916,9.425665,9.804546059355049
2385581.7675544797,-2.3211207,-1.2754201,9.485488,9.848288193061599
2385586.3256658595,-2.263691,-1.2562767,9.418487,9.76782603549085
2385590.88377724,-2.3641932,-1.1797037,9.47113,9.83277243627757
2385595.4418886197,-2.4288018,-0.96434194,9.423272,9.778910406937483
2385600.0,-2.3498356,-0.9475916,9.523774,9.855045834012845
2385604.093220339,-2.2612982,-1.1103094,9.626669,9.950829741715642
2385608.651331719,-2.2708697,-1.117488,9.526167,9.856646809965905
2385613.2094430993,-2.2828343,-1.0098072,9.559668,9.88019712822838
2385617.7675544797,-2.110545,-0.95955616,9.468738,9.748443339008693
2385622.3256658595,-2.0244002,-1.0863802,9.559668,9.831870136395013
2385626.88377724,-2.0267932,-1.1055236,9.5405245,9.81588920275812
2385631.4418886197,-2.0124357,-1.1629534,9.56924,9.847472377966138
2385636.0,-2.0244002,-1.1414171,9.629062,9.905547141161685
2385640.093220339,-2.0914016,-1.0480938,9.6003475,9.881251610339515
2385644.651331719,-2.1488314,-0.9571632,9.480701,9.768179422413432
2385649.2094430993,-2.21344,-1.0983448,9.554882,9.86921719120676
2385653.7675544797,-2.2110472,-1.1007377,9.554882,9.86894742304128
2385658.3256658595,-2.2780485,-1.0433079,9.595561,9.917297376164317
2385662.88377724,-2.2924058,-1.0457008,9.617098,9.941689416623227
2385667.4418886197,-2.237369,-0.99784267,9.609919,9.917260368811274
2385672.0,-2.0746512,-1.0026284,9.521381,9.796230778075259
2385677.093220339,-2.057901,-1.0887731,9.518989,9.799568101258627
2385681.651331719,-1.9956853,-1.1318455,9.643419,9.91258614399226
2385686.2094430993,-1.9382555,-1.0959519,9.624276,9.878493482033072
2385690.7675544797,-1.9430413,-1.1820966,9.621883,9.887031623845767
2385695.3256658595,-1.8903974,-1.1773108,9.557275,9.813315875653265
2385699.88377724,-1.87604,-1.1892753,9.6003475,9.853962347276669
2385704.4418886197,-1.9430413,-1.1390243,9.5405245,9.802774790057988
2385709.0,-2.0196145,-1.1462029,9.511809,9.791176347562107
2385714.093220339,-2.0914016,-1.1462029,9.475916,9.771423938173339
2385718.651331719,-2.1584032,-1.093559,9.507024,9.810100967718284
2385723.2094430993,-2.2541194,-1.0815945,9.466345,9.790944213451102
2385727.7675544797,-2.2780485,-1.1246668,9.418487,9.75511546566946
2385732.3256658595,-2.3378713,-1.196454,9.346699,9.708652150843632
2385736.88377724,-2.4120514,-1.2060257,9.361056,9.741758536344372
2385741.4418886197,-2.4814458,-1.1844895,9.423272,9.816243875328889
2385746.0,-2.5651975,-1.1653463,9.401736,9.814831125731402
2385750.093220339,-2.5125535,-1.1820966,9.468738,9.867485838588157
2385754.651331719,-2.4910173,-1.1031306,9.509417,9.891970278435164
2385759.2094430993,-2.4814458,-1.1031306,9.444808,9.827454835096319
2385763.7675544797,-2.474267,-1.1246668,9.382592,9.76831127865893
2385768.3256658595,-2.3570144,-1.1270597,9.420879,9.776438082543788
2385772.88377724,-2.3833365,-1.1246668,9.459166,9.819419010247525
2385777.4418886197,-2.3498356,-1.0313433,9.478309,9.81955894370838
2385782.0,-2.340264,-0.9786994,9.423272,9.758726519953326
2385787.093220339,-2.3737648,-0.9954498,9.54531,9.886284571371547
2385791.651331719,-2.392908,-1.0169859,9.492666,9.842305461873188
2385796.2094430993,-2.3737648,-0.9834852,9.502238,9.84350189073899
2385800.7675544797,-2.3378713,-1.0433079,9.478309,9.81796695294128
2385805.3256658595,-2.3259068,-1.1055236,9.509417,9.85195597596397
2385809.88377724,-2.2828343,-1.1103094,9.461558,9.796182888878139
2385814.4418886197,-2.3665862,-1.0480938,9.478309,9.825353548606273
2385819.0,-2.3570144,-1.0696299,9.487881,9.834607815004235
2385823.093220339,-2.3522286,-1.0552725,9.466345,9.81112975629918
2385827.651331719,-2.3546216,-1.0528796,9.468738,9.813755532105267
2385832.2094430993,-2.3091564,-1.0911661,9.487881,9.825616143917447
2385836.7675544797,-2.2565124,-1.1462029,9.509417,9.84045938862669
2385841.3256658595,-2.2062612,-1.1414171,9.507024,9.82618577146666
2385845.88377724,-2.2182257,-1.0624512,9.583597,9.89417299560357
2385850.4418886197,-2.21344,-1.0433079,9.5907755,9.898019130068533
2385855.0,-2.187118,-0.9691278,9.581204,9.875331079425784
2385859.093220339,-2.2517266,-0.99784267,9.617098,9.927463755502927
2385863.651331719,-2.1488314,-1.0744157,9.669742,9.963721986717434
2385868.2094430993,-2.2206187,-1.0552725,9.617098,9.926395186655121
2385872.7675544797,-2.160796,-0.9691278,9.617098,9.904383978216558
2385877.3256658595,-2.163189,-1.0241647,9.662563,9.954567982158547
2385881.88377724,-2.165582,-1.0217718,9.619491,9.913040406912515
2385886.4418886197,-2.21344,-1.0361292,9.6003475,9.906540893442518
2385891.0,-2.160796,-1.0217718,9.557275,9.851627398075724
2385896.093220339,-2.110545,-1.0480938,9.578811,9.86440677305759
2385900.651331719,-2.2230117,-1.0600582,9.56924,9.881085901019388
2385905.2094430993,-2.2038684,-1.1055236,9.574025,9.886413558783616
2385909.7675544797,-2.1679747,-1.2084186,9.578811,9.895150831916968
2385914.3256658595,-2.0459363,-1.1533817,9.56206,9.846275241590222
2385918.88377724,-2.0387578,-1.1366314,9.652991,9.931198293892223
2385923.4418886197,-1.952613,-1.2275618,9.645813,9.917727256360564
2385928.0,-1.8138243,-1.3902797,9.576418,9.84533483159545
2385932.093220339,-1.7994668,-1.4548881,9.60274,9.877620951191833
2385936.651331719,-1.7563945,-1.4764243,9.708028,9.975497882413928
2385941.2094430993,-1.7276796,-1.433352,9.650599,9.908250895842372
2385945.7675544797,-1.7659662,-1.5410328,9.863567,10.138213485309297
2385950.3256658595,-1.7492158,-1.6463208,9.839638,10.128603263161525
2385954.88377724,-1.9286839,-1.4453164,9.583597,9.882008527654547
2385959.4418886197,-2.029186,-1.225169,9.557275,9.846834025552681
2385964.0,-1.9645776,-1.1318455,9.547704,9.813220218353809
2385968.093220339,-1.9885067,-1.2203832,9.58599,9.865834902880097
2385972.651331719,-1.9669704,-1.3400285,9.672134,9.960663885968867
2385977.2094430993,-2.0267932,-1.3328499,9.645813,9.946159457924715
2385981.7675544797,-1.9454343,-1.1844895,9.612311,9.878474211736737
2385986.3256658595,-1.8114314,-1.2467052,9.643419,9.890959891849425
2385990.88377724,-1.720501,-1.2395264,9.674527,9.904192145805075
2385995.4418886197,-1.6463208,-1.2658484,9.703242,9.922985924552105
2386000.0,-1.6702498,-1.2490981,9.729565,9.950598753193129
2386005.093220339,-1.8449322,-1.1079165,9.758279,9.992760521267888
2386009.651331719,-1.8592896,-1.093559,9.736743,9.972812710123366
2386014.2094430993,-1.7875023,-1.0983448,9.674527,9.899393842348193
2386018.7675544797,-1.8808258,-0.9212696,9.631455,9.85652924628415
2386023.3256658595,-1.9119335,-0.598227,9.648206,9.85399636038025
2386027.88377724,-1.7851094,-0.7968384,9.775029,9.968588614067887
2386032.4418886197,-1.7013576,-1.0002356,9.705635,9.90426371275574
2386037.0,-1.6870002,-0.9547703,9.6912775,9.883239124020443
2386042.093220339,-1.7372513,-0.8829831,9.674527,9.868848661721705
2386046.651331719,-1.7228938,-0.8877689,9.70085,9.892572334250868
2386051.2094430993,-1.742037,-1.0002356,9.772636,9.976952368001582
2386055.7675544797,-1.7946811,-1.0265576,9.648206,9.86724783185519
2386060.3256658595,-1.8688612,-0.9858781,9.542917,9.774040243513122
2386064.88377724,-2.0267932,-1.0337363,9.650599,9.915168302772521
2386069.4418886197,-2.0961876,-1.1366314,9.593168,9.885079952639924
2386074.0,-2.0267932,-1.1557746,9.564454,9.844921834107542
2386078.093220339,-1.9669704,-1.2921704,9.674527,9.95666357626094
2386082.651331719,-1.9573988,-1.3448143,9.56206,9.852559414046988
2386087.2094430993,-2.010043,-1.3783151,9.52856,9.835318045205097
2386091.7675544797,-1.9932925,-1.5051392,9.502238,9.825028550115103
2386096.3256658595,-2.005257,-1.7013576,9.566847,9.921705238543208
2386100.88377724,-1.926291,-1.6319634,9.576418,9.903619705256487
2386105.4418886197,-1.9597918,-1.3783151,9.533346,9.82981293667134
2386110.0,-1.8927903,-1.3137065,9.490273,9.765949083547657
2386115.093220339,-1.9478272,-1.3089207,9.56924,9.852799519808995
2386119.651331719,-1.8736471,-1.2682413,9.583597,9.847046303779276
2386124.2094430993,-1.8281817,-1.3615648,9.66017,9.925471850834798
2386128.7675544797,-1.7276796,-1.3854938,9.652991,9.903772266978658
2386133.3256658595,-1.797074,-1.2873845,9.703242,9.951871136770222
2386137.88377724,-1.6534995,-1.2897775,9.597955,9.824374116351205
2386142.4418886197,-1.7061435,-1.2658484,9.681706,9.91204968131268
2386147.0,-1.7994668,-1.2155973,9.624276,9.866227550804084
2386151.093220339,-1.7994668,-1.2155973,9.609919,9.852223137273665
2386155.651331719,-1.849718,-1.2179902,9.597955,9.850162282360888
2386160.2094430993,-1.8521109,-1.2802058,9.633848,9.893445757841727
2386164.7675544797,-1.74443,-1.3184924,9.605133,9.850890222789348
2386169.3256658595,-1.7348584,-1.2897775,9.6003475,9.84072821433013
2386173.88377724,-1.6941789,-1.3137065,9.588383,9.825128776155378
2386178.4418886197,-1.6080343,-1.3831009,9.686492,9.915990604857454
2386183.0,-1.6558924,-1.3854938,9.6003475,9.840134390899976
2386188.093220339,-1.7803236,-1.4166015,9.633848,9.898855449880214
2386192.651331719,-1.7516087,-1.3137065,9.578811,9.825862709186351
2386197.2094430993,-1.8138243,-1.3519931,9.617098,9.879596038063607
2386201.7675544797,-1.8545038,-1.1916683,9.58599,9.836181269249735
2386206.3256658595,-1.8903974,-1.2658484,9.552489,9.819675177765827
2386210.88377724,-1.9215052,-1.2682413,9.547704,9.821368025904981
2386215.4418886197,-1.9191123,-1.2754201,9.648206,9.919554802002523
2386220.0,-1.8880045,-1.2323477,9.6410265,9.901143056204056
2386224.093220339,-1.9095407,-1.2299547,9.588383,9.853741563675069
2386228.651331719,-1.8401463,-1.2036327,9.425665,9.67874117714375
2386233.2094430993,-1.8808258,-1.4022441,9.521381,9.80614554007289
2386237.7675544797,-1.9071478,-1.3926725,9.52856,9.816832742636553
2386242.3256658595,-1.9215052,-1.3759222,9.552489,9.840497458421543
2386246.88377724,-1.8688612,-1.3926725,9.574025,9.8536355512951
2386251.4418886197,-1.849718,-1.4812101,9.581204,9.869899195507623
2386256.0,-1.7827165,-1.4668527,9.571632,9.846109592437692
2386260.093220339,-1.8473251,-1.4357449,9.56924,9.851107938732884
2386264.651331719,-1.7516087,-1.4118158,9.6003475,9.860427425411212
2386269.2094430993,-1.7109293,-1.4931747,9.593168,9.858281900541423
2386273.7675544797,-1.691786,-1.4237803,9.595561,9.847034127958787
2386278.3256658595,-1.7755378,-1.3878866,9.621883,9.88227687121634
2386282.88377724,-1.7827165,-1.3759222,9.638634,9.898207181393056
2386287.4418886197,-1.8138243,-1.3950654,9.566847,9.836703085025828
2386292.0,-1.8425392,-1.4046371,9.609919,9.885266778028504
2386297.093220339,-1.7875023,-1.3711363,9.554882,9.816870644946228
2386301.651331719,-1.74443,-1.4166015,9.60274,9.862170721616122
2386306.2094430993,-1.718108,-1.40703,9.576418,9.830534585224143
2386310.7675544797,-1.6989647,-1.3831009,9.607526,9.854136440708688
2386315.3256658595,-1.7252867,-1.3615648,9.605133,9.853377738089865
2386319.88377724,-1.6415349,-1.4118158,9.619491,9.860145423883395
2386324.4418886197,-1.6415349,-1.3615648,9.624276,9.857747412907933
2386329.0,-1.5984626,-1.3950654,9.679314,9.909107410078464
2386334.093220339,-1.5434257,-1.4907818,9.724778,9.958709776668648
2386338.651331719,-1.5506045,-1.4477094,9.708028,9.93710443092215
2386343.2094430993,-1.5434257,-1.433352,9.679314,9.90584576691564
2386347.7675544797,-1.5458187,-1.4524952,9.69367,9.923030576804281
2386352.3256658595,-1.5027462,-1.430959,9.6912775,9.910940892937546
2386356.88377724,-1.5410328,-1.3783151,9.662563,9.88127817311773
2386361.4418886197,-1.6415349,-1.3926725,9.652991,9.890116721568823
2386366.0,-1.6870002,-1.4142087,9.710421,9.956818363272314
2386370.093220339,-1.6558924,-1.4740313,9.7176,9.967271325380755
2386374.651331719,-1.7635733,-1.4405307,9.631455,9.89698160547651
2386379.2094430993,-1.8808258,-1.3854938,9.645813,9.924656527595959
2386383.7675544797,-1.8927903,-1.4166015,9.6410265,9.92667149165714
2386388.3256658595,-1.8784329,-1.4046371,9.652991,9.93386887313195
2386392.88377724,-1.8449322,-1.3926725,9.645813,9.918922317763261
2386397.4418886197,-1.8401463,-1.4022441,9.650599,9.92403587156906
2386402.0,-1.7946811,-1.3783151,9.607526,9.870419879937288
2386407.093220339,-1.7731448,-1.40703,9.650599,9.91250911532837
2386411.651331719,-1.7875023,-1.4022441,9.652991,9.916737781880244
2386416.2094430993,-1.8784329,-1.3639576,9.617098,9.89330402019488
2386420.7675544797,-1.8880045,-1.4237803,9.624276,9.910519656348216
2386425.3256658595,-1.8664683,-1.3974583,9.581204,9.86083483812399
2386429.88377724,-1.8521109,-1.4524952,9.686492,9.968359160763914
2386434.4418886197,-1.8975761,-1.3998512,9.609919,9.894994776349993
2386439.0,-1.8880045,-1.4213874,9.574025,9.861382146206688
2386443.093220339,-1.8903974,-1.430959,9.652991,9.939893421746973
2386447.651331719,-1.8736471,-1.4285661,9.626669,9.910807766926398
2386452.2094430993,-1.8186102,-1.3998512,9.612311,9.882481935344304
2386456.7675544797,-1.8545038,-1.380708,9.609919,9.88413284573004
2386461.3256658595,-1.8975761,-1.4285661,9.619491,9.908390548239478
2386465.88377724,-1.9095407,-1.3974583,9.588383,9.876047991979606
2386470.4418886197,-1.8449322,-1.3687434,9.650599,9.920246689293638
2386475.0,-1.8042527,-1.3854938,9.681706,9.945368366517739
2386479.093220339,-1.7922882,-1.3687434,9.674527,9.933892900602048
2386483.651331719,-1.7827165,-1.3352427,9.715207,9.967256304526565
2386488.2094430993,-1.742037,-1.4094229,9.669742,9.925979859287313
2386492.7675544797,-1.720501,-1.4046371,9.681706,9.933204928125335
2386497.3256658595,-1.6870002,-1.3974583,9.667349,9.912441478406818
2386501.88377724,-1.6870002,-1.3591717,9.650599,9.890772388629815
2386506.4418886197,-1.6678569,-1.3615648,9.652991,9.890189107876434
2386511.0,-1.7276796,-1.3878866,9.667349,9.91810176911473
2386516.093220339,-1.7396442,-1.3424214,9.650599,9.897601639618186
2386520.651331719,-1.691786,-1.3567789,9.638634,9.879587756543144
2386525.2094430993,-1.6606783,-1.3759222,9.597955,9.837263567607039
2386529.7675544797,-1.7300725,-1.4716384,9.574025,9.839757371817448
2386534.3256658595,-1.742037,-1.4237803,9.626669,9.886081088459576
2386538.88377724,-1.7803236,-1.3711363,9.645813,9.904103962745124
2386543.4418886197,-1.7587874,-1.4094229,9.6003475,9.861362895168163
2386548.0,-1.6271775,-1.5817122,9.566847,9.832297881042054
2386552.093220339,-1.7013576,-1.770752,9.552489,9.86307388311082
2386556.651331719,-1.7635733,-1.8018597,9.56206,9.888876609936894
2386561.2094430993,-1.8114314,-1.7803236,9.492666,9.82657334095558
2386565.7675544797,-1.8066456,-1.720501,9.542917,9.863638116024399
2386570.3256658595,-1.823396,-1.5697477,9.552489,9.850833817986794
2386574.88377724,-1.8736471,-1.5506045,9.516596,9.822450162661791
2386579.4418886197,-1.8903974,-1.4859959,9.559668,9.857435691647579
2386584.0,-1.8903974,-1.4501023,9.538132,9.831193267341256
2386589.093220339,-1.9908996,-1.3304569,9.521381,9.81786600678573
2386593.651331719,-2.0411506,-1.1988469,9.564454,9.853035571824348
2386598.2094430993,-1.9908996,-1.0002356,9.633848,9.888133279840616
2386602.7675544797,-2.1009734,-0.90691215,9.69367,9.960111291759002
2386607.3256658595,-2.0148287,-0.81358874,9.597955,9.840843536517767
2386611.88377724,-2.110545,-0.80162424,9.681706,9.941450230706614
2386616.4418886197,-2.1727605,-0.7944455,9.70085,9.972889378977916
2386621.0,-2.1488314,-0.7705164,9.662563,9.928559595291954
2386626.093220339,-2.0363648,-0.8710185,9.66017,9.910819302909387
2386630.651331719,-1.978935,-0.9739136,9.703242,9.950758601486319
2386635.2094430993,-1.9813279,-1.0122001,9.684099,9.936396868662172
2386639.7675544797,-1.87604,-1.1007377,9.664956,9.906690872725227
2386644.3256658595,-1.8401463,-1.2060257,9.746315,9.991561062901491
2386648.88377724,-1.7755378,-1.2706342,9.708028,9.950520257666053
2386653.4418886197,-1.7659662,-1.3496002,9.739136,9.989535892416548
2386658.0,-1.8114314,-1.3759222,9.652991,9.917392846078036
2386662.093220339,-1.8114314,-1.3519931,9.629062,9.890804014800697
2386666.651331719,-1.8377534,-1.4118158,9.60274,9.878419758237712
2386671.2094430993,-1.8688612,-1.3950654,9.60274,9.881875589317174
2386675.7675544797,-1.9573988,-1.2395264,9.58599,9.861999799160332
2386680.3256658595,-1.926291,-1.1773108,9.605133,9.866875781328487
2386684.88377724,-1.8162172,-1.3256711,9.605133,9.864817724146759
2386689.4418886197,-1.6726427,-1.430959,9.626669,9.8751270015684
2386694.0,-1.588891,-1.3687434,9.554882,9.782320948468648
2386698.093220339,-1.6726427,-1.3663505,9.559668,9.800607101651282
2386702.651331719,-1.7300725,-1.328064,9.578811,9.823977046851914
2386707.2094430993,-1.6295704,-1.3400285,9.724778,9.951004131174523
2386711.7675544797,-1.5984626,-1.3950654,9.698457,9.927807327639115
2386716.3256658595,-1.6989647,-1.3591717,9.655384,9.897488012085843
2386720.88377724,-1.7037506,-1.277813,9.650599,9.882794808593891
2386725.4418886197,-1.586498,-1.3160994,9.794173,10.008742093220974
2386730.0,-1.5745336,-1.2754201,9.782208,9.989867158489997
2386735.093220339,-1.7085364,-1.1749178,9.731957,9.950402781633052
2386739.651331719,-1.8664683,-1.1366314,9.801352,10.042018516328023
2386744.2094430993,-1.8521109,-1.0720228,9.794173,10.025236776433147
2386748.7675544797,-1.8162172,-1.1533817,9.827674,10.06042297886857
2386753.3256658595,-1.9406484,-1.119881,9.7176,9.972562330042543
2386757.88377724,-2.0148287,-1.1749178,9.67692,9.954031706474545
2386762.4418886197,-2.0937946,-1.2060257,9.705635,10.00189104966029
2386767.0,-2.1009734,-1.2012398,9.643419,9.942464296851792
2386771.093220339,-2.1799393,-1.1462029,9.58599,9.897328968956872
2386775.651331719,-2.1584032,-1.2873845,9.686492,10.007206927543493
2386780.2094430993,-2.084223,-1.354386,9.483095,9.8034400967084
2386784.7675544797,-2.0435436,-1.3352427,9.502238,9.810783379610838
2386789.3256658595,-2.0650797,-1.2610626,9.566847,9.868099845962233
2386793.88377724,-2.010043,-1.3759222,9.581204,9.8859953900413
2386798.4418886197,-1.8975761,-1.3998512,9.416093,9.706862820812997
2386803.0,-1.8018597,-1.2323477,9.485488,9.733440390238355
2386807.093220339,-1.8210031,-1.3232782,9.495059,9.75824076861633
2386811.651331719,-2.000471,-1.2132044,9.607526,9.88829130733396
2386816.2094430993,-2.1033661,-1.222776,9.626669,9.929354769186476
2386820.7675544797,-2.0937946,-1.1892753,9.626669,9.92326093588898
2386825.3256658595,-2.2230117,-1.093559,9.655384,9.968153915960261
2386829.88377724,-2.2541194,-1.119881,9.574025,9.899350606188387
2386834.4418886197,-2.2756555,-1.1294526,9.495059,9.829059799584495
2386839.0,-2.1584032,-0.9499845,9.552489,9.839269333600512
2386844.093220339,-2.2541194,-0.8566611,9.478309,9.780248668065171
2386848.651331719,-2.1919038,-0.8829831,9.514202,9.803271959919506
2386853.2094430993,-2.1727605,-1.0433079,9.490273,9.791560712117944
2386857.7675544797,-2.2971919,-1.0361292,9.428058,9.759043600470399
2386862.3256658595,-2.3570144,-0.89734054,9.538132,9.86593629494732
2386866.88377724,-2.421623,-0.78248096,9.66017,9.989765704749614
2386871.4418886197,-2.450338,-0.7202653,9.928176,10.25142024812192
2386876.0,-2.1440456,-0.78248096,9.815709,10.077566728150346
2386881.093220339,-2.2038684,-0.9164838,9.727171,10.015729336569654
2386885.651331719,-2.2612982,-0.90451926,9.66017,9.962454972040486
2386890.2094430993,-2.2206187,-0.98109233,9.705635,10.004650934640324
2386894.7675544797,-2.2421548,-0.99784267,9.662563,9.96935664274304
2386899.3256658595,-2.263691,-0.7872668,9.344306,9.646768400842804
2386903.88377724,-2.368979,-1.0600582,10.078929,10.407718034077847
2386908.4418886197,-2.1392598,-1.1103094,9.428058,9.731263900798725
2386913.0,-2.2589052,-0.9858781,9.377807,9.69628137276841
2386917.093220339,-2.2828343,-0.8279462,9.442415,9.74966811658612
2386921.651331719,-2.3594074,-0.9140909,9.861175,10.180625611093975
2386926.2094430993,-2.1225095,-1.0480938,9.920997,10.19949649076844
2386930.7675544797,-2.110545,-0.859054,9.643419,9.90898097593804
2386935.3256658595,-1.9621847,-0.82076746,9.497452,9.732698624359687
2386939.88377724,-2.0937946,-0.69155043,9.554882,9.806017940945566
2386944.4418886197,-2.1966896,-0.77290934,9.514202,9.795043325244222
2386949.0,-2.1033661,-0.5910483,9.435237,9.684894645257176
2386954.093220339,-2.1177237,-0.5647263,9.365842,9.618870299178454
2386958.651331719,-2.237369,-0.5049036,9.514202,9.786765930799508
2386963.2094430993,-2.0770442,-0.5049036,9.380199,9.620663882167777
2386967.7675544797,-2.2062612,-0.598227,9.377807,9.65239494402314
2386972.3256658595,-2.4551237,-0.72983694,9.497452,9.83676211126376
2386976.88377724,-2.3498356,-0.69155043,9.43763,9.750324577221035
2386981.4418886197,-2.4048727,-0.6221561,9.468738,9.789151660313395
2386986.0,-2.2421548,-0.60540575,9.535739,9.814483814517047
2386990.093220339,-2.2038684,-0.3565433,9.526167,9.784273951662557
2386994.651331719,-2.2517266,-0.33979294,9.507024,9.775951987392194
2386999.2094430993,-2.3498356,-0.39722276,9.440022,9.736196825689865
2387003.7675544797,-2.6202343,-0.5599405,9.442415,9.815210755896267
2387008.3256658595,-2.5125535,-0.48576033,9.724778,10.055853784629527
2387012.88377724,-2.7949166,-0.48576033,9.593168,10.003818979538828
2387017.4418886197,-2.9863493,-0.33979294,9.626669,10.084963927513341
2387022.0,-2.9193478,-0.22493336,9.70085,10.133098110464822
2387026.093220339,-2.7949166,-0.4450809,9.593168,10.00192621872029
2387030.651331719,-2.914562,-0.5814767,9.679314,10.125310183647851
2387035.2094430993,-2.5340896,-0.5264398,9.195946,9.553228344322571
2387039.7675544797,-2.5939124,-0.47618872,9.633848,9.988301383269981
2387044.3256658595,-2.4120514,-0.6819788,9.344306,9.674664937946295
2387048.88377724,-2.3737648,-0.93562704,9.626669,9.959061869436256
2387053.4418886197,-2.2325833,-1.0050215,9.444808,9.75699208587181
2387058.0,-2.2612982,-1.0480938,9.4998455,9.821356051319588
2387063.093220339,-2.184725,-1.1581675,9.39695,9.716843344738107
2387067.651331719,-2.3235137,-1.0887731,9.45438,9.79639954073798
2387072.2094430993,-2.3881223,-0.93084127,9.509417,9.848786994832485
2387076.7675544797,-2.4072654,-0.82076746,9.516596,9.850593147453
2387081.3256658595,-2.4288018,-0.8901618,9.6912775,10.030569564878594
2387085.88377724,-1.9765421,-0.3828653,9.6003475,9.809178183302246
2387090.4418886197,-2.1416528,-0.21057591,9.758279,9.992748769555911
2387095.0,-2.2517266,-0.47618872,9.789387,10.056297838368343
2387099.093220339,-2.1536174,-0.57669085,9.913818,10.161418581043714
2387103.651331719,-2.0914016,-0.7059079,9.619491,9.869492069749384
2387108.2094430993,-2.28762,-0.6101916,9.507024,9.797399879033547
2387112.7675544797,-2.3354783,-0.78248096,9.6003475,9.91127678270008
2387117.3256658595,-2.340264,-0.57429796,9.708028,10.0026227253326
2387121.88377724,-2.4120514,-0.48576033,9.643419,9.952360778428638
2387126.4418886197,-2.4790528,-0.46661708,9.60274,9.928547214579563
2387131.0,-2.41923,-0.45225963,9.47113,9.785679130378625
2387135.093220339,-2.390515,-0.4977249,9.535739,9.843404406882103
2387139.651331719,-2.1823323,-0.39243692,9.7176,9.96736328041686
2387144.2094430993,-2.2445478,-0.27518442,9.70085,9.96093429423142
2387148.7675544797,-2.2708697,-0.57908374,9.813316,10.089269452649507
2387153.3256658595,-1.9956853,-0.22493336,9.753493,9.95811129351977
2387157.88377724,-2.0483294,-0.19621846,9.609919,9.827751431609883
2387162.4418886197,-2.1703677,-0.24168372,9.626669,9.871254378713848
2387167.0,-2.1751535,-0.39482984,9.526167,9.779317003912167
2387172.093220339,-2.0363648,-0.34697166,9.626669,9.845807583285547
2387176.651331719,-2.0220072,-0.46183127,9.593168,9.814819077039864
2387181.2094430993,-2.057901,-0.4785816,9.483095,9.715610513636523
2387185.7675544797,-1.9095407,-0.49054617,9.423272,9.627306810102302
2387190.3256658595,-1.9454343,-0.21296883,9.423272,9.624350654675466
2387194.88377724,-2.1177237,-0.19861138,9.370628,9.608999389332439
2387199.4418886197,-2.2924058,-0.4091873,9.473523,9.755521340752832
2387204.0,-2.4934103,-0.62454903,9.038013,9.396426735902804
2387209.093220339,-2.5843408,-0.21057591,9.334735,9.688159634556088
2387213.651331719,-2.658521,-0.37090075,9.52856,9.899432152774803
2387218.2094430993,-2.5699832,-0.234505,9.406522,9.7540997729053
2387222.7675544797,-2.392908,-0.06221561,9.200731,9.507014800291028
2387227.3256658595,-2.553233,-0.25364825,9.60274,9.939615268943617
2387231.88377724,-2.5197322,-0.80641,9.729565,10.08284595424535
2387236.4418886197,-2.237369,-0.47140288,9.217482,9.496842377219773
2387241.0,-2.471874,-0.31586388,9.7917795,10.103904039488148
2387245.093220339,-1.9167194,-0.37090075,9.00212,9.21138128182125
2387249.651331719,-2.4288018,0.39482984,8.817866,9.154765402793982
2387254.2094430993,-1.797074,0.7681235,7.753022,7.9955511883304355
2387258.7675544797,-1.8568966,2.680057,6.166524,6.975441831806539
2387263.3256658595,-2.6202343,3.3620358,8.583362,9.58347618197187
2387267.88377724,-1.3735292,3.0581365,6.482388,7.297954199529406
2387272.4418886197,-12.924097,3.0940301,18.114315,22.466279474900603
2387277.0,0.6269419,-12.182295,7.623805,14.384845160481415
2387282.093220339,-3.204104,-12.703949,0.9547703,13.136521189537932
2387286.651331719,6.4799953,-8.23639,13.292604,16.926954257069937
2387291.2094430993,18.296175,2.8020954,29.700775,34.9962539975631
2387295.7675544797,9.2485895,29.724705,10.562296,32.87334165959024
2387300.3256658595,-19.4352,34.45309,-13.364391,41.75343526452621
2387304.88377724,-38.1956,7.217011,1.8975761,38.91773249033674
2387309.4418886197,7.415622,-50.6459,43.522213,67.18766003422245
2387314.0,30.626831,-13.361999,-8.719757,34.533750976654865
2387318.093220339,0.38765112,16.616354,-16.972897,23.755688291791554
2387322.651331719,-2.6465564,2.4934103,72.56494,72.65598304961628
2387327.2094430993,-7.1691527,22.629732,-20.657976,31.468293459358694
2387331.7675544797,6.1784887,-20.964268,7.288798,23.03911525377343
2387336.3256658595,-11.430922,10.215324,10.026285,18.317893249396477
2387340.88377724,-0.9571632,-1.4189945,-22.81638,22.88049175797724
2387345.4418886197,-4.5848117,-8.222033,66.635315,67.29700981564316
2387350.0,-3.6898644,9.662563,-18.576145,21.26154712339583
2387354.093220339,4.687707,-13.653934,54.153904,56.04506962289744
2387358.651331719,-6.9705415,11.031306,-6.5206747,14.587575515214253
2387363.2094430993,10.062179,-18.999691,36.999146,42.79220149808652
2387367.7675544797,-12.701556,9.404129,5.080144,16.60045270860144
2387372.3256658595,12.51491,-16.389027,23.431356,31.213004057821237
2387376.88377724,-12.5579815,7.16676,13.1107435,19.5181183359138
2387381.4418886197,8.293819,-6.929862,9.234232,14.215535922842621
2387386.0,-7.9013824,0.57908374,19.282053,20.84621667602472
2387391.093220339,-3.0246358,3.4457877,-5.4701877,7.137564575493816
2387395.651331719,5.305077,-10.909268,20.066927,23.4486146604673
2387400.2094430993,-11.696535,10.959519,-4.405344,16.623087663726075
2387404.7675544797,17.056648,-16.37467,12.624983,26.803903714852673
2387409.3256658595,-17.207401,11.926254,13.472073,24.89632371585504
2387413.88377724,10.44983,-9.8922825,1.2730271,14.445649797985574
2387418.4418886197,-12.208617,1.3974583,27.75534,30.353947309510303
2387423.0,-9.160052,6.307706,-6.0253425,12.649049761442408
2387427.093220339,6.7097144,-13.125101,20.100428,24.926206076596426
2387431.651331719,-19.439985,13.653934,5.0155354,24.279590726065262
2387436.2094430993,12.278011,-13.936296,1.8784329,18.668112129391645
2387440.7675544797,-13.409857,5.927233,20.83505,25.476570889726077
2387445.3256658595,-8.109566,3.5797906,0.54797596,8.881454785165674
2387449.88377724,9.0428,-13.168173,13.46968,20.89510208877499
2387454.4418886197,-18.39907,12.356977,11.966933,25.187857051958943
2387459.0,10.502474,-12.256475,0.7418015,16.15776621354893
2387464.093220339,-5.3505425,1.7276796,18.083206,18.937146592953187
2387468.651331719,-11.725249,7.5089455,7.4658732,15.798892026735592
2387473.2094430993,13.680256,-13.88126,3.22564,19.75458267903263
2387477.7675544797,-14.826459,9.459166,18.0856,25.226744444225
2387482.3256658595,-1.9932925,-1.6176059,3.9506912,4.711456759435292
2387486.88377724,9.033228,-9.109801,10.107644,16.332548778139955
2387491.4418886197,-15.77405,11.217953,15.127965,24.566612463950623
2387496.0,7.2289753,-7.7769513,0.80880296,10.648625152510842
2387501.093220339,0.9858781,-3.153853,15.561081,15.90804784573612
2387505.651331719,-13.134672,9.810924,11.048057,19.76950686680396
2387510.2094430993,14.905424,-14.182766,0.53840435,20.581846255247147
2387514.7675544797,-7.374943,5.4295087,18.413427,20.56510741185063
2387519.3256658595,-8.339285,5.704693,7.8822393,12.814713922594546
2387523.88377724,13.127494,-12.787701,3.615684,18.6796564843493
2387528.4418886197,-12.048292,8.023421,18.822615,23.74505127597601
2387533.0,-4.094266,1.6295704,4.245019,6.118717192163171
2387537.093220339,11.897539,-10.545546,9.250982,18.3940382368571
2387541.651331719,-14.845602,11.818573,16.412956,25.08895556129567
2387546.2094430993,0.17707519,-1.1797037,2.9791706,3.2091297740371276
2387550.7675544797,7.317513,-8.45893,13.117922,17.238891230243116
2387555.3256658595,-15.4845085,12.505338,11.533817,23.003965235808916
2387559.88377724,6.3986363,-8.080851,4.5106316,11.25115535466457
2387564.4418886197,3.0078855,-3.5462897,15.860195,16.527835044417078
2387569.0,-13.0509205,10.899696,6.6283555,18.250068367655956
2387574.093220339,7.803273,-8.856153,7.305548,13.8814101247763
2387578.651331719,-0.39243692,-1.7635733,18.753222,18.840051297752243
2387583.2094430993,-10.899696,9.250982,1.4189945,14.366543991084642
2387587.7675544797,11.194024,-11.995648,11.241882,19.889234654817766
2387592.3256658595,-5.673585,2.1272953,17.803236,18.806120389844445
2387596.88377724,-9.679314,8.157424,-2.94567,12.996524826863219
2387601.4418886197,12.440729,-14.21866,15.4199,24.38678630441168
2387606.0,-8.621648,5.7956233,16.412956,19.424396730126343
2387610.093220339,-5.340971,4.0033355,-4.0799084,7.82293544015236
2387614.651331719,10.906875,-12.261261,18.853724,24.99522658916942
2387619.2094430993,-11.043271,5.963127,15.587403,20.01199266145126
2387623.7675544797,-3.1706033,1.6511066,-6.0492716,7.026561405203901
2387628.3256658595,11.615176,-13.431393,21.555317,27.92751908784441
2387632.88377724,-12.502945,8.317748,12.624983,19.618836897604762
2387637.4418886197,-0.4498667,-1.1414171,-5.049036,5.195957810956253
2387642.0,6.968148,-9.913818,22.591446,25.636152329433994
2387646.093220339,-12.842738,8.080851,10.758514,18.600583208841623
2387650.651331719,3.2902486,-5.278755,-5.0897155,8.037175752138758
2387655.2094430993,6.563747,-8.552254,24.812063,27.052953507454486
2387659.7675544797,-12.632162,6.558961,9.796566,17.279010144858443
2387664.3256658595,2.914562,-5.4271154,-5.314649,8.135953982782976
2387668.88377724,5.9248405,-9.626669,25.876907,28.238109123534638
2387673.4418886197,-12.32587,7.286405,6.826967,15.862731400991887
2387678.0,6.0851655,-8.466109,-4.034443,11.179488856048842
2387683.093220339,2.6992004,-6.3172774,26.381811,27.261577874136925
2387687.651331719,-12.711128,7.075829,5.0083566,15.385830068682955
2387692.2094430993,6.824574,-9.822887,-3.462538,12.452031508861877
2387696.7675544797,2.3067634,-5.278755,27.336582,27.93698493353083
2387701.3256658595,-11.61039,5.90809,3.1371026,13.399555818127956
2387705.88377724,6.8413243,-9.877925,-1.5458187,12.11472970960001
2387710.4418886197,0.39961565,-5.3242207,27.257616,27.77561248169857
2387715.0,-12.191867,6.4799953,-0.2943277,13.81009010936201
2387719.093220339,9.401736,-13.522324,1.8257889,16.570437268884465
2387723.651331719,-2.1153307,-1.2419193,25.405506,25.523650260770125
2387728.2094430993,-11.773108,5.503689,-0.7657306,13.018563973809146
2387732.7675544797,7.9994917,-12.378513,4.524989,15.417359598830757
2387737.3256658595,-2.1177237,-0.7944455,24.99871,25.100824667450908
2387741.88377724,-11.203596,5.0322857,-2.2517266,12.486582213671923
2387746.4418886197,9.193553,-13.350035,8.387143,18.250726532592697
2387751.0,-4.766673,0.71787244,22.115257,22.63451135998057
2387756.093220339,-12.074615,5.049036,-3.306999,13.499086425144556
2387760.651331719,10.390007,-14.783386,12.191867,21.797760619630953
2387765.2094430993,-6.0827723,3.2998202,18.28421,19.54996847900465
2387769.7675544797,-9.341913,1.9956853,-3.1203523,10.049412758580493
2387774.3256658595,9.655384,-13.488823,17.276796,23.951251869962892
2387778.88377724,-6.874825,2.268477,14.773814,16.452197020056317
2387783.4418886197,-9.085872,1.7348584,-3.7329366,9.974849338614298
2387788.0,11.811395,-15.0322485,21.93579,29.09736121602571
2387793.093220339,-8.571397,3.8717253,10.521617,14.112530872418246
2387797.651331719,-7.98992,0.5431901,-3.6228628,8.789710573094078
2387802.2094430993,10.583833,-14.077478,25.19493,30.740484796393062
2387806.7675544797,-10.119608,4.9628916,6.3675284,12.945353491960779
2387811.3256658595,-5.623334,-2.3474429,-2.000471,6.413599431376847
2387815.88377724,9.818102,-12.392871,25.106392,29.670006703111962
2387820.4418886197,-9.911426,3.306999,5.1830387,11.663468519491733
2387825.0,-7.3318706,-0.7633377,-2.134474,7.674307147623273
2387829.093220339,10.038249,-12.581911,25.64001,30.27343786552862
2387833.651331719,-11.859253,5.2404685,2.9935281,13.306599952767456
2387838.2094430993,-4.2354474,-3.35725,0.3613291,5.416705729423888
2387842.7675544797,8.399107,-11.105487,24.18273,27.9048610488839
2387847.3256658595,-11.969326,4.2282686,2.2924058,12.899540480183612
2387851.88377724,-4.527382,-3.4290373,1.746823,5.941958866572899
2387856.4418886197,7.853524,-9.621883,22.804415,25.967283554051047
2387861.0,-11.701321,3.4984317,1.8951832,12.35927412375695
2387865.093220339,-5.915269,-2.1727605,2.7925239,6.89271247512853
2387869.651331719,6.556568,-9.887496,22.830736,25.729237598310913
2387874.2094430993,-12.225368,4.469952,0.9858781,13.054196614337766
2387878.7675544797,-3.7425082,-3.9124048,4.120588,6.803860992985841
2387883.3256658595,5.005964,-7.9300976,22.127222,24.0324796255423
2387887.88377724,-11.840109,3.699436,1.8066456,12.535468725738834
2387892.4418886197,-6.4488873,-1.8903974,4.084694,7.864252972257699
2387897.0,5.436687,-8.377571,21.990826,24.152384759238288
2387902.093220339,-11.591247,3.5606472,1.8281817,12.262848927801878
2387906.651331719,-6.511103,-1.483603,4.8791394,8.270522439534902
2387911.2094430993,3.697043,-8.265104,21.782642,23.58947993438662
2387915.7675544797,-11.464422,4.3287706,0.9140909,12.28848195974471
2387920.3256658595,-5.673585,-2.6609137,6.1425953,8.775050170264258
2387924.88377724,3.22564,-7.3510137,20.607725,22.11606849109517
2387929.4418886197,-9.722385,2.6920216,1.0720228,10.144997943164473
2387934.0,-7.9253116,-0.7633377,6.0755935,10.015292545831006
2387938.093220339,4.4675593,-9.1480875,21.244238,23.55767898599768
2387942.651331719,-10.009535,4.2306614,0.16271774,10.868107648555274
2387947.2094430993,-6.590069,-1.0002356,7.9300976,10.35934016362983
2387951.7675544797,3.204104,-8.303391,19.50938,21.44361192817332
2387956.3256658595,-8.999727,4.4388447,0.69155043,10.058661458786665
2387960.88377724,-6.506317,-0.7441944,9.023657,11.14954581420828
2387965.4418886197,3.01985,-7.3773355,16.738392,18.53964238726638
2387970.0,-7.0925794,3.2711053,2.5939124,8.230017859510768
2387974.093220339,-7.779344,1.1533817,8.494823,11.576290434226324
2387978.651331719,4.3885937,-8.181353,15.491687,18.06063835195915
2387983.2094430993,-5.826731,2.8260245,4.730779,8.019817863754904
2387987.7675544797,-6.168917,1.2730271,7.815238,10.037633184514537
2387992.3256658595,2.263691,-6.0827723,13.720935,15.178553062507417
2387996.88377724,-3.5223608,0.8877689,8.612076,9.346818295813813
2388001.4418886197,-6.214382,2.3833365,5.841089,8.855346250716414
2388006.0,2.7279153,-5.211754,12.9097395,14.186799342993131
2388011.093220339,-1.0385221,-1.6152129,12.278011,12.42726820265161
2388015.651331719,-7.1763315,3.6826856,4.319199,9.149720598353843
2388020.2094430993,1.4046371,-4.1612673,11.287348,12.111704083152366
2388024.7675544797,-0.6867646,-2.084223,14.364627,14.531281429339643
2388029.3256658595,-6.855682,3.7114005,5.312256,9.433712586572703
2388033.88377724,-1.9765421,-1.1749178,8.277069,8.59051929400023
2388038.4418886197,1.6630712,-3.9913707,15.994198,16.56837999154691
2388043.0,-6.264633,3.3333209,7.4658732,10.300287252574272
2388048.093220339,-2.0770442,0.07896597,7.573554,7.8536022578233275
2388052.651331719,2.0650797,-3.5750046,15.465365,16.006958694286627
2388057.2094430993,-4.656599,2.3785505,8.975799,10.387799787070035
2388061.7675544797,-1.978935,0.4115802,6.4656377,6.774219723548856
2388066.3256658595,3.0605295,-3.4745026,13.235175,14.021728367729922
2388070.88377724,-3.512789,0.45943835,11.756357,12.278546333643112
2388075.4418886197,-5.0274997,2.7781663,4.682921,7.411053252824242
2388080.0,3.0389934,-3.6755068,11.335206,12.297630917559927
2388084.093220339,-3.4003224,-0.36611494,12.596269,13.052288124830602
2388088.651331719,-4.398165,2.6896286,4.168446,6.629773708662985
2388093.2094430993,0.43072346,-1.1222739,11.342384,11.405906198503983
2388097.7675544797,-2.3761578,-2.0722585,14.249767,14.594390728482368
2388102.3256658595,-4.3862004,2.732701,2.5316968,5.754641378182606
2388106.88377724,0.70112205,-0.5144752,11.289741,11.323184565637542
2388111.4418886197,-1.7228938,-2.995921,16.590033,16.946182479408403
2388116.0,-4.8001738,2.9121692,3.046172,6.387610023570558
2388121.093220339,1.3448143,-0.37090075,10.765694,10.855701735469294
2388125.651331719,-0.014357449,-2.3522286,16.649855,16.815197205029285
2388130.2094430993,-3.4290373,0.72983694,5.21654,6.285160963362821
2388134.7675544797,-1.6702498,1.8186102,8.009064,8.381061007416667
2388139.3256658595,1.5458187,-3.3189635,17.286367,17.66984884559828
2388143.88377724,-3.484074,-0.3613291,6.6714277,7.535069867778938
2388148.4418886197,-0.7513731,1.0696299,6.31967,6.453440831624446
2388153.0,1.1581675,-2.3306925,15.900874,16.1124570892055
2388157.093220339,-3.017457,-2.3043704,9.052371,9.816343026243844
2388161.651331719,-1.8545038,0.78248096,4.175625,4.635440101824417
2388166.2094430993,1.4812101,-1.7803236,14.321555,14.50760052865683
2388170.7675544797,-2.5293038,-3.6037195,12.282797,13.048037173865795
2388175.3256658595,-3.9626558,1.7037506,1.5218896,4.574008641319139
2388179.88377724,2.112938,-2.8906329,13.735292,14.194312659641902
2388184.4418886197,-1.1509888,-3.1131735,13.689827,14.08644695261217
2388189.0,-2.4910173,0.7346228,2.108152,3.3450175937180258
2388193.093220339,-0.1483603,-0.7681235,11.919075,11.944721568353668
2388197.651331719,0.69155043,-4.1110163,15.549117,16.09825259137736
2388202.2094430993,-2.5388756,0.40440148,3.0629225,3.9988653528604585
2388206.7675544797,0.63412064,-0.8518753,10.5359745,10.58936065952399
2388211.3256658595,1.0624512,-3.5534685,16.269382,16.686783141001072
2388215.88377724,-2.9217408,-0.8279462,4.513025,5.439619367483728
2388220.4418886197,-0.5312256,-1.4022441,8.89444,9.019952996977322
2388225.0,1.4381378,-2.7494514,15.02507,15.342113669167322
2388230.093220339,-1.5529974,-2.6154485,7.6620917,8.243786811882504
2388234.651331719,-3.256748,0.4785816,5.111252,6.079502026553373
2388239.2094430993,2.3665862,-4.0464077,15.522795,16.215156802469558
2388243.7675544797,-0.2584341,-2.677664,9.030835,9.422985380343313
2388248.3256658595,-2.3546216,-0.03828653,3.82626,4.492880404057735
2388252.88377724,0.1172525,-2.4886243,14.4077,14.621519016343916
2388257.4418886197,1.0241647,-3.6611493,11.33042,11.951206838893576
2388262.0,-1.2060257,-0.3278284,2.9576344,3.2108520197870236
2388266.093220339,0.72744405,-2.7207365,13.144244,13.442571639379448
2388270.651331719,2.1392598,-4.608741,14.847995,15.693306905079057
2388275.2094430993,-1.9119335,0.34697166,1.5242825,2.4696793680702065
2388279.7675544797,0.99066395,-3.8358316,12.876239,13.471917083715635
2388284.3256658595,1.9454343,-3.776009,14.869531,15.464343204406015
2388288.88377724,0.1172525,-1.1725249,3.3428926,3.5445019008333203
2388293.4418886197,-0.6006199,-1.8305746,9.461558,9.655714754372417
2388298.0,3.381179,-5.1519313,16.960932,18.045719211452468
2388302.093220339,1.5912839,-1.1270597,4.374236,4.789194984698295
2388306.651331719,0.9858781,-1.40703,6.9107184,7.121075610682572
2388311.2094430993,3.0413861,-4.4675593,18.133457,18.921717107047623
2388315.7675544797,2.005257,-1.8305746,6.200025,6.768483508352455
2388320.3256658595,1.5458187,-1.7276796,4.371843,4.948478904691305
2388324.88377724,3.4027152,-4.840853,18.389498,19.318021772218916
2388329.4418886197,2.8188457,-3.4027152,9.885103,10.827724744069206
2388334.0,0.009571632,0.07657306,0.05025107,0.09208810831509096
2388339.093220339,4.012907,-6.30292,19.145658,20.55204231627633
2388343.651331719,3.01985,-3.0270288,12.660876,13.363389482683854
2388348.2094430993,1.4189945,-0.8877689,-1.902362,2.5339021665963073
2388352.7675544797,2.5915194,-5.879375,17.384478,18.533836584034223
2388357.3256658595,3.907619,-4.761887,14.503416,15.757351608661462
2388361.88377724,1.1725249,-1.014593,-3.4290373,3.76331109550623
2388366.4418886197,3.1634245,-6.664249,17.23133,18.744017788886705
2388371.0,3.8071167,-4.893497,16.001377,17.16055116692226
2388376.093220339,-0.18186101,0.208183,-5.5084743,5.51540594174243
2388380.651331719,2.68245,-8.241176,18.327284,20.273180773675648
2388385.2094430993,3.902833,-4.9963923,15.228467,16.495522077566303
2388389.7675544797,1.5673548,-1.8353605,-5.659228,6.152398783403696
2388394.3256658595,0.42593765,-7.054293,18.607254,19.904129572328767
2388398.88377724,3.7401154,-6.219168,15.010713,16.67297269792973
2388403.4418886197,0.36850783,-0.80641,-6.43453,6.495326891679225
2388408.0,2.6154485,-8.674292,19.439985,21.447539004688657
2388412.093220339,3.5008245,-5.317042,14.9413185,16.24098846523839
2388416.651331719,0.2680057,-0.63651353,-6.867646,6.902284991973422
2388421.2094430993,0.75615895,-9.038013,19.248552,21.27825672940662
2388425.7675544797,3.6563635,-5.958341,14.5393095,16.132648333525513
2388430.3256658595,0.8542682,-1.4524952,-7.453909,7.6420073177035945
2388434.88377724,-0.37090075,-7.8319883,20.559866,22.00422000516363
2388439.4418886197,2.3378713,-6.537425,13.491216,15.172886245030794
2388444.0,-1.0648441,-0.27997026,-7.891811,7.96824680613686
2388449.093220339,0.859054,-9.909033,22.007576,24.150782806480226
2388453.651331719,1.5171037,-4.898283,12.304334,13.330094342059201
2388458.2094430993,-0.002392908,-1.0863802,-7.3079414,7.38824980430377
2388462.7675544797,-1.5147108,-8.932726,21.878359,23.680171771581254
2388467.3256658595,2.4862316,-6.176096,11.660641,13.427436758403875
2388471.88377724,0.42593765,-1.4213874,-7.4706593,7.616594737757995
2388476.4418886197,-0.49533197,-9.286877,23.050884,24.856280722487206
2388481.0,0.18186101,-5.7860518,11.229918,12.634180905225532
2388485.093220339,-2.471874,-0.31825677,-7.836774,8.223531794223382
2388489.651331719,-1.1605604,-10.782444,23.1466,25.561163717937102
2388494.2094430993,-0.37090075,-3.9722273,10.911661,11.618110985359747
2388498.7675544797,-0.5072965,-1.5290682,-6.793466,6.981875077106399
2388503.3256658595,-3.5702188,-8.760436,22.230116,24.159258237028418
2388507.88377724,-0.4498667,-5.0418572,11.131808,12.228648879652434
2388512.4418886197,-1.6965718,-0.78008807,-6.2167754,6.491162426218954
2388517.0,-1.4979604,-9.880318,22.218151,24.362077148714008
2388521.093220339,-2.4288018,-3.4529665,10.4857235,11.303647780794382
2388525.651331719,-2.3067634,-0.48336744,-4.790602,5.338976398902294
2388530.2094430993,-2.9911351,-9.54531,23.098742,25.171645042887366
2388534.7675544797,-2.4359803,-1.6487137,7.9444547,8.471518008415485
2388539.3256658595,0.2368979,-2.290013,-2.215833,3.1953397376620862
2388543.88377724,-3.3261423,-8.552254,22.323439,24.135869569317084
2388548.4418886197,-2.9360983,-2.9504557,6.300527,7.551324555510402
2388553.0,-2.4599094,-0.67240715,-0.58626246,2.6166752384628733
2388558.093220339,-2.165582,-9.999963,22.615374,24.822251037324737
2388562.651331719,-3.5582542,-1.8066456,4.3287706,5.887562839005743
2388567.2094430993,-2.7518444,-1.3328499,1.2562767,3.3056569097086075
2388571.7675544797,-4.819317,-8.612076,21.526602,23.6809683721479
2388576.3256658595,-2.184725,-2.2206187,3.6085055,4.767125200783481
2388580.88377724,-2.3115492,-1.9861137,2.4599094,3.9165114055185244
2388585.4418886197,-3.412287,-8.408679,21.143736,23.008849539538172
2388590.0,-3.644399,-1.5912839,3.7042217,5.43461929893448
2388594.093220339,-3.9602628,0.208183,4.5991693,6.072839521724194
2388598.651331719,-1.5697477,-9.554882,21.11502,23.229376820654903
2388603.2094430993,-3.7616515,0.3230426,2.5221252,4.540428840246486
2388607.7675544797,-2.1225095,-0.77290934,6.4728165,6.855639202008938
2388612.3256658595,-3.823867,-7.7745585,19.296412,21.152239474281565
2388616.88377724,-4.3862004,0.040679436,3.175389,5.415118102755879
2388621.4418886197,-4.474738,-0.004785816,6.84611,8.178785068992752
2388626.0,-1.7348584,-8.248354,19.006868,20.791972213976976
2388631.093220339,-5.6879425,0.598227,3.668328,6.794644636948959
2388635.651331719,-4.682921,0.84230363,7.0710435,8.522844635228571
2388640.2094430993,-1.5147108,-8.686256,18.710148,20.683689958203217
2388644.7675544797,-5.2428617,2.0937946,2.988742,6.387812878824805
2388649.3256658595,-2.4575167,-1.0863802,8.329713,8.752355621894024
2388653.88377724,-2.0890088,-7.2289753,17.942024,19.456059900993917
2388658.4418886197,-5.6879425,0.93084127,4.2665553,7.170958756065994
2388663.0,-3.9482985,0.5599405,8.624041,9.501403979324502
2388668.093220339,0.61497736,-8.25314,17.803236,19.632822748769687
2388672.651331719,-7.0231853,2.2852273,4.2306614,8.511515226576954
2388677.2094430993,-3.1586387,0.48097453,8.659934,9.230535836017452
2388681.7675544797,-1.3615648,-8.044957,18.638361,20.346097724201783
2388686.3256658595,-6.6666417,2.5173392,2.3665862,7.508784085726926
2388690.88377724,-2.0890088,-1.3711363,9.861175,10.172843501218335
2388695.4418886197,-0.0071787243,-7.729093,18.114315,19.69434787079675
2388700.0,-7.3557997,1.7659662,2.9049904,8.103418727312238
2388704.093220339,-4.4173083,0.7489802,9.681706,10.668130812268705
2388708.651331719,0.9954498,-8.580969,18.360785,20.29143600387873
2388713.2094430993,-7.2816195,2.8523464,2.2301903,8.132134486258039
2388717.7675544797,-2.1703677,-0.49293905,9.976034,10.221288530776059
2388722.3256658595,-0.4450809,-7.518517,19.11455,20.544882978234114
2388726.88377724,-6.661856,2.7159507,1.6750357,7.386640519603007
2388731.4418886197,-1.8425392,-0.83991075,10.160288,10.360108735647817
2388736.0,2.574769,-7.9444547,19.243767,20.9777587991187
2388740.093220339,-7.4945884,2.0363648,2.8092742,8.258792794039527
2388744.651331719,-3.7137933,1.3184924,8.214853,9.111228934429846
2388749.2094430993,2.342657,-8.413465,21.012125,22.754863922719885
2388753.7675544797,-6.6833925,2.1751535,1.4955676,7.185802008390452
2388758.3256658595,-1.0815945,-0.9164838,8.176567,8.298556327674211
2388762.88377724,2.0555081,-7.4515157,20.854195,22.240675548969666
2388767.4418886197,-5.9990206,0.75615895,1.5960697,6.253596005831168
2388772.0,-3.0844586,0.11246668,6.800645,7.468286686064562
2388777.093220339,4.424487,-8.530717,22.534016,24.497573243803437
2388781.651331719,-6.7312503,0.27279153,2.0961876,7.055363085942749
2388786.2094430993,-3.4290373,0.832732,4.8647823,6.0098124941639055
2388790.7675544797,2.7159507,-7.939669,23.883615,25.314853298066264
2388795.3256658595,-6.202418,0.90451926,1.6295704,6.476391265742914
2388799.88377724,-1.3759222,-0.6269419,4.08948,4.360053292888568
2388804.4418886197,3.5750046,-6.956184,24.570381,25.785127035115384
2388809.0,-7.0710435,0.7944455,2.8690968,7.672191100274597
2388813.093220339,-3.9147975,1.1916683,3.0389934,5.09717506943549
2388817.651331719,5.4821525,-8.128709,24.467485,26.358826382545228
2388822.2094430993,-6.700143,0.83033913,3.462538,7.587525861089512
2388826.7675544797,-2.5197322,1.1605604,2.3737648,3.6511245017780536
2388831.3256658595,2.782952,-6.987292,24.950853,26.059780059608656
2388835.88377724,-6.927469,0.911698,2.3809435,7.381728248815263
2388840.4418886197,-0.9667349,-0.33022133,2.4981961,2.699000972159919
2388845.0,4.836067,-6.6163907,24.66849,25.994202599880524
2388849.093220339,-7.396479,-0.15793194,3.5606472,8.210423410396142
2388853.651331719,-3.9746203,1.8784329,1.3639576,4.602879210187061
2388858.2094430993,5.77648,-7.741058,25.486864,27.255677146316877
2388862.7675544797,-6.7216787,-0.043072347,3.2328188,7.458816070043771
2388867.3256658595,-2.3091564,0.6532639,1.0361292,2.6139090882807707
2388871.88377724,2.916955,-5.1950035,23.771149,24.506411663424704
2388876.4418886197,-6.45128,-0.45704544,3.8884757,7.546399634402837
2388881.0,-3.6324344,0.6652284,1.4620669,3.971743712092402
2388886.093220339,5.1758604,-5.704693,23.340425,24.57861860001823
2388890.651331719,-7.0231853,-0.6389065,5.34815,8.850765034525454
2388895.2094430993,-4.972463,2.340264,-0.49054617,5.517504818390889
2388899.7675544797,5.254826,-6.2167754,23.156172,24.54526011998865
2388904.3256658595,-5.903304,-0.9571632,4.5967765,7.5429114868731215
2388908.88377724,-2.163189,0.2057901,-0.3254355,2.1971901327921666
2388913.4418886197,4.0224786,-4.118195,22.347368,23.07693048637333
2388918.0,-6.2813835,-0.92605543,5.8386955,8.625759240508918
2388923.093220339,-3.381179,1.3352427,-0.57669085,3.680735909355358
2388927.651331719,7.0351496,-5.0322857,21.825714,23.47720215167473
2388932.2094430993,-5.5754757,-1.5841051,7.7673798,9.69162046339953
2388936.7675544797,-3.7831876,2.5604117,-1.8090385,4.913332553855163
2388941.3256658595,5.936805,-4.527382,21.68932,22.938383627543352
2388945.88377724,-5.0657864,-1.2538838,7.753022,9.345788707584363
2388950.4418886197,-2.4144442,0.9188767,-1.4524952,2.9637168371387257
2388955.0,5.391222,-2.8523464,19.875494,20.790296207195148
2388959.093220339,-4.967677,-2.237369,9.755886,11.17411949387897
2388963.651331719,-4.481917,2.0220072,-2.5891266,5.556947872939641
2388968.2094430993,7.7458434,-5.068179,20.928373,22.884084530094132
2388972.7675544797,-4.7523155,-1.8903974,10.1339655,11.351447559525493
2388977.3256658595,-3.5391111,2.5460541,-3.1562457,5.382340176636786
2388981.88377724,6.0732007,-3.4960387,20.500044,21.664668410486097
2388986.4418886197,-3.6731138,-2.134474,10.370864,11.20725498732506
2388991.0,-2.452731,1.0361292,-2.9480627,3.97247111513538
2388996.093220339,6.882004,-2.9097762,20.61251,21.924970811615747
2389000.651331719,-3.749687,-2.4766598,11.694141,12.527846187225721
2389005.2094430993,-4.5776334,2.6992004,-3.8621538,6.569371531509704
2389009.7675544797,7.839167,-4.7953877,20.763264,22.705977503311683
2389014.3256658595,-2.866704,-2.2325833,11.323241,11.891938730044647
2389018.88377724,-3.5821834,1.7755378,-3.9650488,5.6308244846421776
2389023.4418886197,4.9581056,-3.046172,20.385183,21.199473128779037
2389028.0,-1.8545038,-3.4457877,11.406993,12.059524307357018
2389032.093220339,-3.5199678,0.89734054,-3.670721,5.164260452146593
2389036.651331719,6.664249,-3.670721,20.06932,21.46308488210029
2389041.2094430993,-2.1177237,-3.2376046,13.196888,13.752261272242716
2389045.7675544797,-5.2213254,2.730308,-4.462774,7.391425605566571
2389050.3256658595,6.4680305,-4.6972785,20.222466,21.74506783104271
2389054.88377724,-1.4764243,-2.943277,13.438572,13.83610948249339
2389059.4418886197,-3.0437791,0.7681235,-4.4340587,5.432815244041964
2389064.0,5.1160374,-3.309392,19.1648,20.11008386675358
2389068.093220339,-1.0193789,-4.2330546,14.792958,15.420424474641104
2389072.651331719,-4.6900997,1.9693633,-4.7259936,6.943374000481894
2389077.2094430993,7.791309,-5.0203214,19.530916,21.618621664940505
2389081.7675544797,-1.1725249,-3.5032175,15.77405,16.20086420213213
2389086.3256658595,-5.099287,2.3857293,-5.061001,7.570215540078664
2389090.88377724,6.458459,-4.8599963,18.071241,19.796489789121093
2389095.4418886197,0.15793194,-3.5797906,17.530445,17.892913265747016
2389100.0,-3.433823,1.4237803,-5.072965,6.289138623788006
2389105.093220339,6.2885623,-3.8382246,17.339012,18.839302561856435
2389109.651331719,-0.004785816,-4.6757426,18.320105,18.907375253496046
2389114.2094430993,-3.7018287,1.9071478,-5.254826,6.704770297740597
2389118.7675544797,9.0069065,-6.168917,16.338776,19.65033085804937
2389123.3256658595,-1.0074143,-3.5750046,17.937239,18.317753257563734
2389127.88377724,-3.7688303,0.9739136,-4.6470275,6.061967841899139
2389132.4418886197,5.807588,-4.9820347,14.369413,16.27970448424409
2389137.0,0.08375178,-4.891104,18.939867,19.56140267662721
2389141.093220339,-3.1490672,0.2392908,-4.3024487,5.337129297029647
2389145.651331719,6.4728165,-4.737958,13.340463,15.566423883050508
2389150.2094430993,-0.54797596,-5.2428617,20.033426,20.71535743731063
2389154.7675544797,-4.288091,1.2467052,-3.5750046,5.720372030734469
2389159.3256658595,7.7458434,-6.355564,11.885574,15.545357925917806
2389163.88377724,-0.34218585,-4.192375,21.399776,21.809252902076704
2389168.4418886197,-3.749687,0.6939433,-1.8927903,4.257272016368931
2389173.0,4.91264,-3.8932614,8.980584,10.951821998160213
2389177.093220339,1.3854938,-5.7405863,22.378477,23.14454918500499
2389181.651331719,-4.065551,0.51208234,-0.6460852,4.148295956438007
2389186.2094430993,5.7740874,-5.305077,6.5422106,10.21197565672383
2389190.7675544797,0.18664683,-5.7118716,21.603174,22.34630710180793
2389195.3256658595,-5.077751,0.2680057,1.8281817,5.403483191557866
2389199.88377724,5.6616206,-6.0301285,2.9815636,8.79238983699549
2389204.4418886197,1.483603,-5.8004093,22.227724,23.019937882829126
2389209.0,-4.924605,-0.22971918,4.321592,6.555963904884534
2389214.093220339,3.697043,-4.0224786,0.071787246,5.46384612155167
2389218.651331719,1.9765421,-7.159581,22.598623,23.787897768923642
2389223.2094430993,-6.6355343,0.8542682,6.1234517,9.069550723505582
2389227.7675544797,5.6065836,-5.728622,-1.1103094,8.092198505128337
2389232.3256658595,1.6989647,-6.458459,23.658682,24.583152923977245
2389236.88377724,-7.7219143,1.3974583,6.8963614,10.447040284989493
2389241.4418886197,4.137338,-5.0921082,-1.0217718,6.640116659971154
2389246.0,2.4646955,-7.415622,23.486393,24.75230958325007
2389251.093220339,-6.97772,0.78487384,6.7240715,9.722023497206154
2389255.651331719,3.5295393,-4.2809124,-0.83751786,5.611175885011735
2389260.2094430993,2.6752713,-8.406286,22.723055,24.37539639422146
2389264.7675544797,-9.0978365,1.7827165,6.568533,11.361968705827062
2389269.3256658595,4.374236,-6.2239537,-2.2756555,7.940412344338293
2389273.88377724,1.849718,-7.7195215,24.024797,25.302239817053653
2389278.4418886197,-9.492666,0.11485959,7.647734,12.190641322249085
2389283.0,2.165582,-4.6422415,-4.479524,6.804872284593022
2389288.093220339,4.2282686,-9.521381,25.946302,27.959712784220635
2389292.651331719,-8.959048,0.416366,8.413465,12.297328775733574
2389297.2094430993,2.318728,-4.2474117,-5.515653,7.337535942241775
2389301.7675544797,3.3141778,-9.356271,24.577559,26.506225455804433
2389306.3256658595,-10.995413,1.3376356,11.014556,15.620781667896532
2389310.88377724,3.3381069,-5.3026843,-6.6977496,9.171764724718699
2389315.4418886197,3.9626558,-8.829831,23.682611,25.583874222938864
2389320.0,-10.736979,0.57908374,12.301941,16.338782341161608
2389324.093220339,0.39243692,-3.4960387,-7.398872,8.192655259466298
2389328.651331719,6.1282377,-10.96909,22.538801,25.804530285463485
2389333.2094430993,-11.624747,2.1488314,11.993256,16.84014277496396
2389337.7675544797,0.7154795,-4.3909864,-6.168917,7.6058010382072325
2389342.3256658595,5.362507,-10.497687,20.24161,23.42393410738508
2389346.88377724,-11.560139,0.94280577,14.134908,18.284455709364998
2389351.4418886197,0.84230363,-4.7236004,-6.2981343,7.917598866122723
2389356.0,7.238547,-11.050449,17.934847,22.274822618513014
2389360.093220339,-11.500317,1.3496002,15.462972,19.317924704095756
2389364.651331719,-2.3091564,-2.577162,-5.5395823,6.531534223471408
2389369.2094430993,6.9131117,-11.567318,16.243061,21.105236074005948
2389373.7675544797,-11.710893,2.2277975,15.029856,19.18344775944072
2389378.3256658595,0.99066395,-5.2380757,-3.720972,6.5011141141764375
2389382.88377724,6.5158887,-10.897304,14.675705,19.40578154226798
2389387.4418886197,-12.385693,2.3306925,15.709441,20.140110604271424
2389392.0,-0.5695121,-3.8430104,-3.5510757,5.263384043909874
2389397.093220339,8.193317,-11.916682,16.59721,22.01374872973054
2389401.651331719,-12.050685,2.605877,13.627611,18.37719743257048
2389406.2094430993,-0.83991075,-3.5367181,-1.7898953,4.051857619881931
2389410.7675544797,7.4945884,-12.134437,14.594346,20.406086145072003
2389415.3256658595,-12.452694,4.2665553,13.378749,18.76869752515062
2389419.88377724,2.187118,-5.1830387,-0.7657306,5.677474673074117
2389424.4418886197,5.393615,-10.081322,16.197596,19.826402906607264
2389429.0,-13.122708,4.2282686,12.581911,18.66516019269406
2389433.093220339,0.35893622,-3.804724,-0.36372203,3.8388870315901733
2389437.651331719,7.0662575,-11.768322,16.393814,21.381827218892827
2389442.2094430993,-12.450301,4.7953877,9.810924,16.560796113644063
2389446.7675544797,2.0650797,-4.790602,1.40703,5.403161584725751
2389451.3256658595,3.3381069,-9.729565,16.836502,19.73005809320025
2389455.88377724,-12.763772,5.056215,9.361056,16.6165145331187
2389460.4418886197,4.398165,-6.692964,1.1725249,8.094098906835832
2389465.0,3.0413861,-9.279697,18.083206,20.551524154172075
2389469.093220339,-12.378513,4.469952,9.270126,16.09792815952876
2389473.651331719,1.7946811,-3.6850784,2.010043,4.565189582776686
2389478.2094430993,4.0990515,-10.131573,17.762556,20.85568004902063
2389482.7675544797,-13.163387,6.633141,7.8750606,16.711968653971393
2389487.3256658595,4.922212,-5.7693014,3.153853,8.213391404444023
2389491.88377724,1.4692456,-8.937511,18.882439,20.942404066796186
2389496.4418886197,-13.127494,5.460616,7.9875274,16.307974116524797
2389501.0,4.0033355,-5.2476473,3.0653152,7.277407133458219
2389506.093220339,3.2447834,-9.69367,19.791742,22.275747098052168
2389510.651331719,-13.20646,5.5395823,6.357957,15.669115322950503
2389515.2094430993,1.3974583,-3.2878556,3.8573678,5.257582190624041
2389519.7675544797,2.7183435,-10.229682,18.992512,21.74284473741328
2389524.3256658595,-12.957598,5.8171597,6.6594634,15.687164998203075
2389528.88377724,4.663778,-5.111252,3.4792883,7.744751081558715
2389533.4418886197,1.0768087,-8.449359,20.622082,22.311912748619303
2389538.0,-13.694613,5.360114,6.633141,16.1329416672424
2389543.093220339,1.5194967,-2.6680925,2.263691,3.8146932712012562
2389547.651331719,4.1564813,-10.52401,22.811592,25.463696763270917
2389552.2094430993,-13.44575,5.1662884,5.503689,15.419770475049088
2389556.7675544797,1.0863802,-2.41923,2.6178415,3.726390995450463
2389561.3256658595,2.4910173,-9.815709,22.155935,24.36059863972569
2389565.88377724,-13.18253,5.1662884,6.1114874,15.42141080683714
2389570.4418886197,3.280677,-3.48886,1.7348584,5.093595915066247
2389575.0,2.8020954,-8.966227,22.038683,23.957222577350638
2389579.093220339,-13.012634,3.3644288,6.7838945,15.055538826470332
2389583.651331719,-1.0289505,-0.82076746,0.72744405,1.5038527855895683
2389588.2094430993,5.884161,-10.847053,22.072184,25.287609930331218
2389592.7675544797,-12.364156,3.3740003,6.5182815,14.378603038194578
2389597.3256658595,-0.9284483,-0.7992313,1.2203832,1.7291969441086865
2389601.88377724,4.0416217,-8.667113,20.138714,22.29397576239994
2389606.4418886197,-11.596032,2.5101607,8.403893,14.539404473371578
2389611.0,-0.77290934,-0.75376606,0.09093051,1.0834299602263264
2389616.093220339,6.350778,-8.557039,19.193516,21.95327661409706
2389620.651331719,-11.837716,1.5290682,9.375414,15.177877233931735
2389625.2094430993,-5.0586076,1.9908996,-0.6795859,5.4785973627870055
2389629.7675544797,8.150245,-9.270126,16.420135,20.542214170680968
2389634.3256658595,-10.315826,0.8638398,10.650834,14.852701779740144
2389638.88377724,-4.0296574,1.4381378,-0.31825677,4.290415651753852
2389643.4418886197,4.8073525,-6.09713,13.493608,15.56801493941409
2389648.0,-9.990392,-0.6125845,13.022206,16.424403830572977
2389652.093220339,-5.4893312,2.234976,-0.8638398,5.989498638778831
2389656.651331719,7.853524,-6.9848986,12.263654,16.151280354899857
2389661.2094430993,-8.784366,-1.5553902,14.847995,17.32187288419578
2389665.7675544797,-7.7434506,3.8908687,-0.77290934,8.70041810967377
2389670.3256658595,7.083008,-6.4441013,9.777423,13.685519515665261
2389674.88377724,-6.219168,-3.0246358,17.898952,19.188511016573685
2389679.4418886197,-6.762358,3.2902486,-0.5264398,7.5387240586846
2389684.0,3.697043,-2.7901309,7.6142335,8.91232344428242
2389688.093220339,-4.580026,-3.9435124,23.280603,24.05232637923489
2389692.651331719,-8.085636,4.819317,-0.22732627,9.415678579051916
2389697.2094430993,7.262476,-3.902833,7.2146177,10.955654778862755
2389701.7675544797,-2.239762,-4.4125223,24.314339,24.812778318269043
2389706.3256658595,-9.215089,4.7953877,1.9334698,10.566546925970865
2389710.88377724,3.9961565,-2.0650797,5.4534373,7.069214901590956
2389715.4418886197,1.0911661,-5.6305127,24.355019,25.021196358547915
2389720.0,-8.616862,3.1371026,3.8717253,9.953993181062103
2389725.093220339,-0.21057591,0.8638398,4.1564813,4.250517405115059
2389729.651331719,2.029186,-5.8698034,23.531858,24.337636054255793
2389734.2094430993,-8.92794,2.8188457,5.056215,10.640456468133003
2389738.7675544797,1.9167194,-0.2368979,3.1371026,3.683930862039559
2389743.3256658595,3.175389,-4.3120203,20.157858,20.857033670133852
2389747.88377724,-8.066493,1.040915,7.7889156,11.261395099196074
2389752.4418886197,-1.1485959,1.4692456,1.7779307,2.576624293260207
2389757.0,6.5493894,-5.2261114,17.449085,19.35658309762514
2389761.093220339,-6.795859,-0.107680865,10.847053,12.800541140958735
2389765.651331719,-2.88824,3.3524642,0.9188767,4.519433692365066
2389770.2094430993,6.195239,-4.544132,14.675705,16.565217751287488
2389774.7675544797,-6.1282377,-0.27039862,12.948026,14.327588422971788
2389779.3256658595,-1.6798215,2.5508401,0.9212696,3.190191712658413
2389783.88377724,4.661385,-2.4670882,11.940612,13.053476519278236
2389788.4418886197,-4.7953877,-2.1679747,16.590033,17.4047422398104
2389793.0,-4.4651666,3.9530842,0.31586388,5.9719642872955845
2389798.093220339,6.917897,-3.7879734,11.459637,13.911481644795625
2389802.651331719,-3.4697168,-2.1823323,18.224388,18.6796634582738
2389807.2094430993,-5.1375737,3.8621538,1.0098072,6.506197513060757
2389811.7675544797,3.7401154,-2.1703677,9.583597,10.514004499567681
2389816.3256658595,-1.1868824,-3.153853,19.605097,19.89259427416263
2389820.88377724,-4.2091255,2.5699832,1.9334698,5.29715551881805
2389825.4418886197,2.5077677,-0.55754757,8.334499,8.721446652418232
2389830.0,-0.55036885,-3.381179,21.473957,21.74548473911171
2389835.093220339,-5.752551,3.383572,2.0363648,6.977620230813945
2389839.651331719,4.9652843,-2.2182257,8.164602,9.809959187191911
2389844.2094430993,1.1222739,-3.153853,20.902052,21.16842141641493
2389848.7675544797,-4.9533195,0.9739136,3.8071167,6.322817357536441
2389853.3256658595,1.3376356,-0.36850783,6.9633627,7.100245566944143
2389857.88377724,3.5032175,-4.407737,20.25836,21.026217639011428
2389862.4418886197,-4.345521,0.071787246,5.1447525,6.734774269148559
2389867.0,0.10289505,0.2656128,5.932019,5.9388540112718164
2389871.093220339,3.4481807,-4.8049593,19.265303,20.15265450744189
2389875.651331719,-5.1327877,-0.07657306,4.891104,7.090435201424879
2389880.2094430993,1.1677392,-0.8997334,5.7166576,5.903669125715799
2389884.7675544797,4.8791394,-4.4101295,16.219131,17.50187001113206
2389889.3256658595,-3.3763933,-2.0866158,8.171782,9.08471343899292
2389893.88377724,-1.7587874,1.3854938,3.771223,4.385778050011902
2389898.4418886197,7.056686,-5.881768,16.18563,18.61092772016806
2389903.0,-3.4146798,-1.1940612,10.138752,10.764762533534006
2389907.093220339,-0.8614469,1.4596739,3.2208543,3.639593531933107
2389911.651331719,6.420172,-5.417544,12.983919,15.464493011414277
2389916.2094430993,-2.2732627,-2.656128,12.890595,13.356278625037001
2389920.7675544797,-0.80880296,0.9547703,2.3618002,2.6727979232607337
2389925.3256658595,6.6786065,-5.2021823,11.210774,14.048058198318781
2389929.88377724,-1.7779307,-3.3763933,15.654405,16.112773355146295
2389934.4418886197,-4.08948,2.4311945,1.9669704,5.148157526893132
2389939.0,8.001884,-6.7408223,9.863567,14.3791093880366
2389944.093220339,-1.0839874,-2.9289196,17.42037,17.698104125683148
2389948.651331719,-4.1732316,1.5673548,3.4457877,5.634351420509097
2389953.2094430993,5.281148,-4.6159196,7.678842,10.400089057913503
2389957.7675544797,1.354386,-4.83846,19.260517,19.905089090880377
2389962.3256658595,-4.3646646,1.1103094,4.22109,6.172575218036758
2389966.88377724,5.6448703,-4.5225964,6.690571,9.853028935670293
2389971.4418886197,1.4620669,-4.766673,19.145658,19.784211668953823
2389976.0,-5.826731,0.67240715,5.4295087,7.9926522659945505
2389980.093220339,5.771694,-5.4773664,5.1136446,9.458507038882729
2389984.651331719,2.4623024,-4.8336744,18.506752,19.285414460253765
2389989.2094430993,-5.6831565,-0.9739136,8.336892,10.136594286219669
2389993.7675544797,2.5460541,-3.204104,2.3570144,4.722731286527974
2389998.3256658595,4.7020645,-7.1954746,18.93269,20.792571171394496
2390002.88377724,-6.176096,-0.7226582,9.69367,11.516667692702747
2390007.4418886197,3.1801748,-3.4433947,1.6822144,4.979992380125745
2390012.0,5.1208234,-6.7599654,15.989412,18.09920607675731
2390016.093220339,-6.2335258,-1.3663505,12.4168005,13.960683802912955
2390020.651331719,2.1895108,-3.0437791,0.019143265,3.749521998536388
2390025.2094430993,7.379729,-7.6214123,12.92649,16.722454044790563
2390029.7675544797,-6.3053126,-1.4237803,14.666134,16.02746404869912
2390034.3256658595,-1.4812101,-0.8877689,-0.27518442,1.748669049637454
2390038.88377724,9.26534,-9.329948,9.401736,16.164377340683433
2390043.4418886197,-5.515653,-1.4094229,16.45603,17.412921187679952
2390048.0,-1.5745336,-1.720501,1.1246668,2.589238335795336
2390053.093220339,8.066493,-7.977956,4.792995,12.316204461075253
2390057.651331719,-4.661385,-3.3428926,19.36102,20.19288331303283
2390062.2094430993,-3.6515777,-0.7968384,1.7731448,4.136787837999296
2390066.7675544797,10.528795,-9.710421,2.7733805,14.589017771839414
2390071.3256658595,-4.6996713,-3.3668218,20.433043,21.235151179138047
2390075.88377724,-6.6307483,0.08135887,4.8599963,8.221496598533278
2390080.4418886197,9.844424,-9.595561,0.35893622,13.751956588301349
2390085.0,-3.649185,-3.6420062,22.715876,23.293599609601767
2390090.093220339,-6.420172,-0.7154795,6.3651357,9.068928928154566
2390094.651331719,7.7195215,-7.9444547,-1.1557746,11.137377949738417
2390099.2094430993,-2.9743848,-5.1710744,22.98149,23.74312233066465
2390103.7675544797,-8.942298,0.8446966,7.293584,11.570418031856565
2390108.3256658595,9.743921,-9.203125,-1.0600582,13.444896043006553
2390112.88377724,-2.4096584,-4.9341764,21.902288,22.580141053278464
2390117.4418886197,-9.803744,0.87819725,10.622119,14.481506788922365
2390122.0,7.453909,-7.970777,-1.7851094,11.058058642183916
2390126.093220339,-1.1773108,-5.565904,21.588818,22.325823852528636
2390130.651331719,-9.861175,1.4094229,11.304098,15.066913316445191
2390135.2094430993,6.6163907,-6.7288575,-1.4788172,9.552018083178474
2390139.7675544797,0.023929082,-7.1452236,19.150444,20.440017081502116
2390144.3256658595,-11.837716,3.1849606,12.452694,17.47412607193402
2390148.88377724,7.760201,-8.009064,-1.2084186,11.21722341889128
2390153.4418886197,-0.110073775,-6.5206747,17.511301,18.6862777858985
2390158.0,-12.380906,2.2565124,13.615647,18.540887918888856
2390163.093220339,5.6329055,-6.874825,-1.4740313,9.009195936704614
2390167.651331719,3.1394954,-8.77958,17.236116,19.596457616326404
2390172.2094430993,-12.730271,3.905226,13.242353,18.77952349824473
2390176.7675544797,5.721443,-6.633141,0.3804724,8.768023082502221
2390181.3256658595,2.8403819,-9.167231,13.957833,16.93891955235332
2390185.88377724,-13.735292,4.5537043,14.89346,20.76558739715066
2390190.4418886197,7.205046,-7.674056,-0.2057901,10.528350911634263
2390195.0,2.9241338,-8.427822,15.407935,17.804022104800126
2390199.093220339,-15.00832,4.6972785,14.615883,21.469469727933458
2390203.651331719,4.613527,-5.6927285,0.57669085,7.350126630944189
2390208.2094430993,5.996628,-10.464187,12.534053,17.394287612551484
2390212.7675544797,-14.182766,6.2335258,14.871923,21.47514351588717
2390217.3256658595,5.821945,-6.5757113,1.3926725,8.892387720754698
2390221.88377724,2.112938,-8.552254,12.471837,15.269324596292037
2390226.4418886197,-15.168644,6.202418,15.628083,22.644971364529237
2390231.0,7.2816195,-7.305548,0.4091873,10.322812037888006
2390235.093220339,3.5797906,-8.298605,14.058335,16.712825274563794
2390239.651331719,-15.513223,6.396243,15.37922,22.761643617524154
2390244.2094430993,5.860232,-5.7190504,-0.057429794,8.188599071440917
2390248.7675544797,2.5963054,-9.054764,13.63479,16.57217701962736
2390253.3256658595,-15.984626,7.977956,15.116,23.4019124495801
2390257.88377724,9.466345,-7.84156,0.6795859,12.311116435486419
2390262.4418886197,-0.30629224,-6.477602,13.275854,14.775027649246692
2390267.0,-15.613726,7.729093,15.3840065,23.242094875414463
2390272.093220339,8.009064,-7.243333,-0.3230426,10.803487197493213
2390276.651331719,-0.63651353,-6.17131,14.881495,16.12293738823661
2390281.2094430993,-12.81163,6.4297442,13.890832,19.960828825140442
2390285.7675544797,9.02605,-7.733879,0.5814767,11.900444451438942
2390290.3256658595,-4.0033355,-5.2978983,14.130122,15.612647733731366
2390294.88377724,-12.785308,6.999256,12.019577,18.89243013662692
2390299.4418886197,12.629769,-10.624512,1.1940612,16.547419810376795
2390304.0,-6.0779867,-2.8020954,14.83603,16.275793286871703
2390308.093220339,-11.402207,5.5252247,11.00977,16.785513632571366
2390312.651331719,9.767851,-8.559432,1.2179902,13.044473521308594
2390317.2094430993,-6.089951,-2.864311,16.092306,17.44288087113932
2390321.7675544797,-8.920761,4.83846,8.664721,13.344214551578599
2390326.3256658595,13.44575,-10.55751,2.9097762,17.341165128003553
2390330.88377724,-9.916211,-0.6269419,17.128437,19.80170827998094
2390335.4418886197,-9.255769,4.513025,7.628591,12.815305500738834
2390340.0,14.864745,-12.421586,4.1612673,19.813444632684906
2390344.093220339,-8.561825,-0.36850783,17.171509,19.19117939805882
2390348.651331719,-5.5635114,1.9956853,5.3026843,7.940647309888065
2390353.2094430993,11.4213505,-9.976034,5.23329,16.042313606120103
2390357.7675544797,-10.710656,0.069394335,16.386635,19.576638479251006
2390362.3256658595,-5.7190504,2.450338,3.383572,7.082390364218013
2390366.88377724,15.805158,-12.912132,7.0925794,21.606268875853885
2390371.4418886197,-10.971483,0.98827106,16.159307,19.5569251577944
2390376.0,-5.541975,1.6343563,4.766673,7.490379089532364
2390381.093220339,12.412014,-10.825516,7.2959766,18.013360673405714
2390385.651331719,-10.040643,1.6511066,16.518244,19.40085177773256
2390390.2094430993,-2.6872358,0.1483603,2.68245,3.7998401316262935
2390394.7675544797,11.47878,-10.349327,9.473523,18.127840402895707
2390399.3256658595,-11.328027,0.84708947,14.486666,18.409379350713316
2390403.88377724,-4.948534,1.5984626,2.239762,5.662120207960863
2390408.4418886197,13.591718,-11.895146,10.232075,20.75872480087505
2390413.0,-9.98082,0.8734115,13.718542,16.987583999100526
2390418.093220339,-3.5486827,-0.4977249,2.41923,4.323604141715486
2390422.651331719,8.533111,-8.588147,10.023892,15.717781747422057
2390427.2094430993,-8.315355,-0.89734054,14.568025,16.798145767357106
2390431.7675544797,-3.988978,-0.5049036,1.2275618,4.204019636323812
2390436.3256658595,9.5405245,-9.049978,11.801823,17.669372814531737
2390440.88377724,-8.693435,-1.433352,13.874081,16.435340995844594
2390445.4418886197,-5.963127,0.8159817,1.7396442,6.265067573095883
2390450.0,8.786758,-8.652756,10.270362,16.048602373949702
2390454.093220339,-7.4060507,-1.7731448,14.3885565,16.27956349557413
2390458.651331719,-5.1926107,-0.72983694,1.8162172,5.549280382024222
2390463.2094430993,4.5417395,-5.4558306,9.128944,11.564216522397555
2390467.7675544797,-6.013378,-3.5917552,15.254789,16.786006309486844
2390472.3256658595,-7.212225,0.39482984,1.1725249,7.317574372310776
2390476.88377724,6.020557,-6.5278535,9.456773,12.972684127860365
2390481.4418886197,-5.185432,-4.326378,15.491687,16.89966324313822
2390486.0,-8.279462,0.5168682,2.5173392,8.669119931888812
2390491.093220339,2.3474429,-4.6661706,7.154795,8.858596261772504
2390495.651331719,-3.9985495,-4.7331724,17.925274,18.965937020014277
2390500.2094430993,-7.7937016,-0.11246668,2.8499537,8.29919691753946
2390504.7675544797,0.21775463,-2.28762,5.2380757,5.71997022564077
2390509.3256658595,-3.0820656,-5.417544,20.023855,20.971496856821272
2390513.88377724,-9.861175,1.6702498,3.9435124,10.750990504319999
2390518.4418886197,1.9406484,-2.7973096,3.3787863,4.796587752949216
2390523.0,-1.3759222,-4.9078546,21.751535,22.340758123470632
2390527.093220339,-9.351485,0.75615895,6.489567,11.407739824802242
2390531.651331719,-1.9908996,0.14118157,1.3974583,2.436494028974156
2390536.2094430993,1.457281,-5.2021823,22.794842,23.42629271567224
2390540.7675544797,-8.856153,0.27997026,7.755415,11.775240597462053
2390545.3256658595,-4.3287706,1.5003533,0.8614469,4.661695581412933
2390549.88377724,1.5649619,-4.4388447,20.236824,20.77694620549771
2390554.4418886197,-8.547467,0.4785816,8.5546465,12.10248772789751
2390559.0,-3.876511,1.0313433,0.2680057,4.0203026740294545
2390563.093220339,2.1464386,-2.6680925,15.52758,15.900681020274767
2390567.651331719,-6.855682,-1.8473251,12.447907,14.330505029162895
2390572.2094430993,-7.5687685,3.3357139,-0.18425392,8.273281896338407
2390576.7675544797,5.051429,-3.4027152,12.19426,13.63067799568136
2390581.3256658595,-5.355328,-2.132081,16.575674,17.549309842054214
2390585.88377724,-8.363214,3.5223608,1.6415349,9.221985189919286
2390590.4418886197,2.627413,-1.1725249,7.217011,7.769386171880634
2390595.0,-2.1249025,-3.3189635,21.552923,21.910253745513025
2390600.093220339,-7.853524,2.5484471,2.5986981,8.655960585343376
2390604.651331719,-0.19861138,1.0457008,3.9961565,4.1354810380267
2390609.2094430993,-1.1844895,-3.4433947,24.211445,24.48375076297795
2390613.7675544797,-8.942298,2.885847,3.8956544,10.17196783481212
2390618.3256658595,0.14357449,0.39482984,2.7781663,2.809753054485194
2390622.88377724,0.60540575,-2.3211207,22.105684,22.235453279255577
2390627.4418886197,-7.4132295,0.677193,6.8030376,10.084437642522909
2390632.0,-3.2088897,2.4359803,0.92605543,4.133830159571951
2390636.093220339,4.50106,-3.1371026,18.829794,19.612804387158985
2390640.651331719,-5.8721967,0.057429794,10.67237,12.18135762883718
2390645.2094430993,-5.0849295,4.034443,0.6652284,6.525010893813573
2390649.7675544797,5.343364,-2.5508401,13.395499,14.645740592788913
2390654.3256658595,-4.4460235,-0.4139731,15.800372,16.419203818348194
2390658.88377724,-4.6039553,3.6515777,1.1485959,5.987461619503894
2390663.4418886197,4.393379,-0.4091873,8.636005,9.6979273890944
2390668.0,-2.495803,-2.132081,21.62471,21.87242292452919
2390673.093220339,-7.286405,4.5991693,1.1509888,8.693033491929784
2390677.651331719,4.6207056,-1.1557746,7.0399356,8.49984872924359
2390682.2094430993,-0.859054,-1.6032485,23.548609,23.618750292141815
2390686.7675544797,-7.1236873,2.68245,2.2924058,7.949690755152362
2390691.3256658595,1.8521109,-0.4450809,5.2261114,5.562432216095184
2390695.88377724,2.28762,-2.8212388,23.378712,23.65917936890393
2390700.4418886197,-6.1737027,0.8231604,3.95787,7.379494088961346
2390705.0,-0.9667349,1.2467052,3.8645465,4.174154989126218
2390710.093220339,3.512789,-3.2519622,20.66994,21.217006488012153
2390714.651331719,-5.7142644,0.6676214,5.599405,8.028192344536242
2390719.2094430993,0.21057591,0.5264398,2.943277,2.997392295917465
2390723.7675544797,4.819317,-2.7733805,16.288525,17.21143522254592
2390728.3256658595,-3.6252558,-1.5936768,9.904246,10.66660087313704
2390732.88377724,-2.833203,1.9071478,0.6676214,3.4799382615201377
2390737.4418886197,7.2457256,-4.8839254,13.984155,16.489689440595463
2390742.0,-2.4862316,-2.316335,13.907582,14.316689299128747
2390746.093220339,-4.9150333,2.1727605,0.49293905,5.396427469862265
2390750.651331719,5.515653,-4.020086,11.043271,12.982193722296937
2390755.2094430993,-0.81358874,-2.3594074,18.633575,18.799969340338155
2390759.7675544797,-4.5154176,1.1557746,0.7394086,4.719272836587103
2390764.3256658595,3.048565,-2.1751535,8.813081,9.575773494624245
2390768.88377724,1.4261732,-3.7066147,22.256437,22.60800633549149
2390773.4418886197,-5.5084743,1.2347406,1.0959519,5.750563801068766
2390778.0,3.984192,-3.278284,7.7171288,9.283049541681303
2390782.093220339,2.6369848,-3.3476784,21.507458,21.92558754348493
2390786.651331719,-4.656599,-0.80162424,3.5606472,5.916479033329233
2390791.2094430993,2.0148287,-1.9645776,5.4630094,6.145207200839838
2390795.7675544797,5.5587254,-4.680528,20.31579,21.57633179563869
2390800.3256658595,-3.854975,-1.3328499,5.515653,6.860010869012091
2390804.88377724,-0.002392908,-0.33500713,3.565433,3.5811378053139107
2390809.4418886197,7.453909,-6.1234517,17.365334,19.86484948430443
2390814.0,-3.1969252,-1.2873845,9.4495945,10.058455438071272
2390819.093220339,0.07657306,-0.7154795,2.005257,2.1304529998305557
2390823.651331719,7.78413,-5.7884445,12.8594885,16.107923952766615
2390828.2094430993,-1.586498,-3.3740003,14.776208,15.239329932371309
2390832.7675544797,-2.998314,0.93562704,0.63172776,3.2038047323970575
2390837.3256658595,9.815709,-7.154795,10.701085,16.188034310623728
2390841.88377724,-0.026321989,-3.4721096,18.60486,18.926094513689744
2390846.4418886197,-4.6470275,0.5814767,1.9334698,5.06668384704544
2390851.0,7.8439527,-6.2430973,7.630984,12.599038640521767
2390855.093220339,2.1033661,-4.450809,21.572067,22.1266338234626
2390859.651331719,-4.840853,-1.1414171,3.823867,6.273647232469356
2390864.2094430993,4.1995535,-4.1564813,4.479524,7.414763763140936
2390868.7675544797,3.9004402,-6.420172,22.01954,23.265686838667797
2390873.3256658595,-6.2550616,-0.46183127,5.4630094,8.31766526413709
2390877.88377724,4.761887,-4.663778,2.732701,7.2037523409299675
2390882.4418886197,5.0968943,-5.881768,19.258123,20.771346316363932
2390887.0,-4.972463,-2.1990826,9.1983385,10.685072939787263
2390891.093220339,2.0148287,-3.0078855,0.19143265,3.625404298963077
2390895.651331719,8.528324,-8.099994,17.047077,20.71098856387452
2390900.2094430993,-4.8815327,-2.1392598,11.34717,12.536509123434852
2390904.7675544797,-1.4764243,-1.3567789,-0.25604117,2.0214437360091595
2390909.3256658595,9.581204,-9.035621,12.727879,18.315043564892168
2390913.88377724,-2.732701,-3.0940301,14.646991,15.217589243017041
2390918.4418886197,-1.9334698,-2.3976939,0.30629224,3.0953281638452275
2390923.0,7.994706,-7.367764,8.399107,13.738423082129222
2390928.093220339,-1.8473251,-5.017928,18.1191,18.891638262688442
2390932.651331719,-4.536954,-0.75376606,1.3998512,4.807462766726889
2390937.2094430993,10.698692,-9.081086,6.168917,15.329177094780693
2390941.7675544797,-1.4357449,-4.6159196,19.70799,20.29218931046229
2390946.3256658595,-6.893968,-0.9834852,4.6446347,8.370583577032555
2390950.88377724,7.946848,-7.7817373,2.8044882,11.4705266925828
2390955.4418886197,-0.047858164,-5.752551,20.918802,21.69540067679476
2390960.0,-8.119137,-1.2203832,6.5206747,10.484699295775313
2390965.093220339,5.211754,-6.1306305,0.9954498,8.107893091819001
2390969.651331719,1.9621847,-8.427822,19.009262,20.88612923078956
2390974.2094430993,-9.416093,-0.44747382,8.348856,12.59231657452156
2390978.7675544797,5.206968,-7.0590787,0.21057591,8.774249259035784
2390983.3256658595,2.057901,-7.6573057,16.731213,18.514933852445235
2390987.88377724,-9.526167,-1.5553902,11.399815,14.937298230281472
2390992.4418886197,1.899969,-4.766673,-0.033500712,5.131488671681397
2390997.0,6.3172774,-10.442651,15.410328,19.657954184602623
2391001.093220339,-11.1294155,0.24886245,12.261261,16.56092821072482
2391005.651331719,-0.20339718,-3.8358316,0.8446966,3.932999723168319
2391010.2094430993,7.810452,-11.823359,12.254083,18.73386048464315
2391014.7675544797,-10.65562,0.28714898,14.127729,17.69794956537497
2391019.3256658595,-0.6221561,-4.087087,0.95237744,4.242449899121635
2391023.88377724,8.913583,-10.765694,10.330184,17.38001238990873
2391028.4418886197,-9.94014,-1.2634555,15.269147,18.263339046507603
2391033.0,-3.22564,-1.746823,1.6319634,4.014903304174156
2391038.093220339,12.526874,-12.572339,8.346463,19.61248899944028
2391042.651331719,-11.282561,0.28236315,15.596975,19.252052898790403
2391047.2094430993,-4.0248713,-1.7276796,3.6874714,5.72554897871268
2391051.7675544797,10.559903,-10.574261,5.2978983,15.855417795273414
2391056.3256658595,-9.60274,-1.1629534,17.85588,20.30757313645753
2391060.88377724,-5.106466,-0.8734115,3.9530842,6.516572515500606
2391065.4418886197,10.911661,-9.73435,4.120588,15.192141427960872
2391070.0,-9.782208,-2.3498356,18.334461,20.913291966182953
2391074.093220339,-8.387143,1.5745336,4.63267,9.710044031253306
2391078.651331719,12.084186,-10.866196,3.0389934,16.532914070975377
2391083.2094430993,-9.696064,-1.7779307,18.485214,20.949411239743576
2391087.7675544797,-8.430215,0.27039862,6.1043086,10.4117349103767
2391092.3256658595,7.805666,-8.013849,1.8401463,11.33738664348009
2391096.88377724,-6.8652534,-4.323985,18.880045,20.5495656822343
2391101.4418886197,-10.732193,2.0722585,5.34815,12.168686465784681
2391106.0,7.7937016,-7.9827414,2.4383733,11.419790244976893
2391110.093220339,-5.984663,-5.5802617,18.128672,19.88980292380093
2391114.651331719,-12.402443,2.7398798,6.3986363,14.222168617562328
2391119.2094430993,6.50871,-7.681235,2.0244002,10.26951182671723
2391123.7675544797,-4.0464077,-5.876982,19.009262,20.304294483866887
2391128.3256658595,-12.242118,1.7994668,6.3364205,13.901717830651235
2391132.88377724,2.4407663,-5.0131426,1.9382555,5.903030852234359
2391137.4418886197,-0.52165395,-8.57379,18.87526,20.737826257234644
2391142.0,-14.233017,3.649185,6.326849,15.997635523892741
2391147.093220339,3.7281508,-5.4773664,2.7997024,7.192981620715805
2391151.651331719,0.68915755,-8.5043955,18.425392,20.305042509258783
2391156.2094430993,-14.790565,3.0366004,7.542446,16.87809961670511
2391160.7675544797,0.5934412,-3.8382246,2.2589052,4.492971537912259
2391165.3256658595,5.7070856,-9.803744,17.886988,21.180853669656642
2391169.88377724,-13.086814,1.5553902,8.207675,15.525780761381279
2391174.4418886197,-2.938491,-1.588891,2.627413,4.250012122280476
2391179.0,7.9300976,-10.401972,16.692926,21.207103712572014
2391183.093220339,-12.768558,2.0387578,8.992549,15.749874421208121
2391187.651331719,-2.6250203,-2.0674727,2.7231295,4.310523078980975
2391192.2094430993,7.083008,-8.695828,12.914525,17.10471814761275
2391196.7675544797,-11.378278,-0.002392908,11.9645405,16.511070387695433
2391201.3256658595,-6.197632,0.7441944,1.2849916,6.373042532769252
2391205.88377724,10.9284115,-9.368236,10.605369,17.879258242197555
2391210.4418886197,-9.124159,-1.8401463,14.867138,17.540473430718134
2391215.0,-9.016478,2.0890088,2.88824,9.695502234983056
2391220.093220339,8.150245,-7.001649,6.389065,12.500789329216415
2391224.651331719,-7.7769513,-1.4381378,18.91594,20.50273147504889
2391229.2094430993,-9.109801,2.3833365,3.8980472,10.191346285219685
2391233.7675544797,4.7547083,-4.158874,2.4862316,6.788580966211087
2391238.3256658595,-3.7257578,-5.0633936,22.055433,22.93384727319581
2391242.88377724,-13.137066,5.391222,4.1014442,14.780717921242989
2391247.4418886197,4.9963923,-3.9124048,2.2206187,6.723242874190403
2391252.0,-1.3759222,-5.2189326,21.519423,22.18594117085693
2391257.093220339,-13.1514225,3.9219763,7.5879116,15.681779692390863
2391261.651331719,0.6867646,-1.0265576,-0.033500712,1.2355518684520803
2391266.2094430993,3.876511,-6.968148,21.593603,23.018820877808533
2391270.7675544797,-12.285191,2.5340896,9.463951,15.713494090676017
2391275.3256658595,-3.0078855,1.1127023,-0.2919348,3.2203582901575687
2391279.88377724,5.161503,-7.31512,18.81065,20.832490183746852
2391284.4418886197,-11.579282,1.4046371,10.84466,15.92668915794555
2391289.0,-2.2828343,0.047858164,0.4737958,2.331974550722109
2391293.093220339,4.886318,-5.2141466,14.137301,15.840666271594026
2391297.651331719,-10.169859,-0.911698,14.752278,17.94120763807077
2391302.2094430993,-5.946377,2.3306925,-0.15553902,6.3887181298307265
2391306.7675544797,8.399107,-5.8554463,10.830302,14.903915297023017
2391311.3256658595,-8.77958,-2.0339718,17.7482,19.905192023680538
2391315.88377724,-8.760436,3.9626558,1.0648441,9.673767252558562
2391320.4418886197,5.616155,-3.3787863,6.6786065,9.357413030690424
2391325.0,-6.4728165,-3.2495692,20.880516,22.10097287122259
2391330.093220339,-8.315355,2.8236315,1.9932925,9.005067385332188
2391334.651331719,2.711165,-1.170132,3.8095098,4.819957413810317
2391339.2094430993,-5.1160374,-4.9652843,23.316496,24.38210147989794
2391343.7675544797,-10.811159,3.7137933,2.215833,11.644025742083143
2391348.3256658595,3.9626558,-2.2493336,3.2423904,5.592426855970023
2391352.88377724,-2.8547394,-5.2428617,23.349997,24.101026860846577
2391357.4418886197,-10.646049,1.7755378,3.82626,11.451251432801126
2391362.0,0.009571632,-0.46901,1.8712541,1.9291588589346274
2391366.093220339,0.49054617,-6.2095966,23.074812,23.900767232768434
2391370.651331719,-9.4137,-0.11485959,5.0394645,10.678349257360672
2391375.2094430993,-3.0653152,1.2155973,1.328064,3.5549385450685826
2391379.7675544797,1.4812101,-6.0755935,22.349762,23.20815979767091
2391384.3256658595,-8.858545,-0.39004403,5.932019,10.668402095849435
2391388.88377724,-1.9215052,0.021536173,1.6176059,2.5118309831852415
2391393.4418886197,2.5484471,-4.42688,18.521109,19.21258253712341
2391398.0,-7.142831,-2.5604117,9.088264,11.839437710539885
2391402.093220339,-4.9844275,1.8449322,0.2584341,5.321191643738825
2391406.651331719,5.549154,-4.936569,16.156916,17.782259649395883
2391411.2094430993,-5.841089,-2.9121692,12.560374,14.154930066066227
2391415.7675544797,-5.9176617,2.8403819,0.20100428,6.5671068252368805
2391420.3256658595,4.7403507,-3.3859649,12.687199,13.960684135407673
2391424.88377724,-4.6996713,-3.328535,15.596975,16.626234833085142
2391429.4418886197,-5.388829,2.0339718,0.66283554,5.797919474046129
2391434.0,3.0748868,-0.8351249,9.284483,9.816006673220187
2391439.093220339,-2.9504557,-4.7714586,19.693634,20.477090275113124
2391443.651331719,-7.585519,2.6680925,-0.3804724,8.050066790721615
2391448.2094430993,4.2569833,-2.579555,8.032992,9.450130754998467
2391452.7675544797,-1.7085364,-4.4723454,21.406956,21.9357866326458
2391457.3256658595,-7.6644845,1.7252867,1.4907818,7.99645966807489
2391461.88377724,0.60301286,-0.30868515,5.8506603,5.88974846467589
2391466.4418886197,0.93802,-5.4797597,23.077206,23.737419502898373
2391471.0,-6.831753,-0.0598227,3.172996,7.532883340691019
2391475.093220339,-1.4548881,1.3519931,4.2091255,4.65417255811594
2391479.651331719,2.0531151,-4.761887,23.766363,24.325518692566167
2391484.2094430993,-6.532639,-0.27279153,3.9411197,7.634278748702383
2391488.7675544797,-0.33979294,0.31825677,3.7137933,3.742860842837944
2391493.3256658595,2.9815636,-3.1347096,20.050177,20.51159973060381
2391497.88377724,-4.886318,-2.6106627,6.7049284,8.697570245730807
2391502.4418886197,-3.7305436,1.3998512,1.5912839,4.290538822110995
2391507.0,4.967677,-4.0679436,18.042526,19.150945782644413
2391511.093220339,-4.0176926,-2.8212388,9.959284,11.103539074879514
2391515.651331719,-5.259612,2.495803,1.0002356,5.907031594706461
2391520.2094430993,4.3120203,-2.9576344,14.694849,15.597426308352171
2391524.7675544797,-2.2971919,-3.852582,13.0509205,13.800217555874614
2391529.3256658595,-4.6589923,1.5769265,0.9188767,5.003722696919208
2391533.88377724,3.256748,-1.2036327,11.27299,11.795568776117298
2391538.4418886197,-0.40440148,-5.2978983,18.140636,18.902749573505574
2391543.0,-6.7049284,2.1225095,0.021536173,7.032892380341412
2391548.093220339,3.75208,-2.28762,10.038249,10.957999478773532
2391552.651331719,0.6293348,-4.457988,20.490473,20.979256494508192
2391557.2094430993,-6.101916,0.63651353,0.90451926,6.20134529248614
2391561.7675544797,0.61497736,-1.0720228,7.255297,7.359807374873435
2391566.3256658595,2.290013,-5.0322857,22.115257,22.79589110086821
2391570.88377724,-5.5395823,-0.31586388,2.7566302,6.19562362548872
2391575.4418886197,-0.6819788,0.1196454,6.1497736,6.188628720213191
2391580.0,3.2447834,-4.4388447,20.607725,21.328626098726062
2391585.093220339,-4.7834234,-0.9451987,4.4603806,6.608292903844805
2391589.651331719,0.21536173,-0.7944455,4.276127,4.354628164074154
2391594.2094430993,3.979406,-3.4529665,18.865688,19.587568340054418
2391598.7675544797,-3.802331,-2.165582,8.099994,9.206376552820387
2391603.3256658595,-2.7805593,1.4596739,2.555626,4.048874185132664
2391607.88377724,4.761887,-3.3404996,17.382084,18.329521258380566
2391612.4418886197,-2.0363648,-2.5101607,10.5766535,11.059533787532176
2391617.0,-2.5436614,1.5410328,1.4022441,3.288051691277163
2391621.093220339,3.82626,-2.969599,14.68767,15.465653359535155
2391625.651331719,-0.93562704,-3.3261423,13.948261,14.369850572707756
2391630.2094430993,-2.8260245,0.43550926,1.0720228,3.05373798382668
2391634.7675544797,3.1179593,-2.500589,10.720228,11.441062184751969
2391639.3256658595,0.49293905,-4.7953877,19.009262,19.610986050807597
2391643.88377724,-4.5895977,0.25125536,0.72983694,4.654051811353477
2391648.4418886197,4.0990515,-3.050958,8.183745,9.648017938542676
2391653.0,2.711165,-4.5943837,22.196615,22.8286770247046
2391658.093220339,-3.986585,-1.2347406,3.2160685,5.268827280164497
2391662.651331719,1.1773108,-0.9451987,4.5704546,4.813368524530351
2391667.2094430993,4.6039553,-4.766673,22.395227,23.35516577279759
2391671.7675544797,-2.7781663,-2.0459363,6.3794928,7.252723055471319
2391676.3256658595,0.16750357,0.33979294,1.562569,1.607836611039066
2391680.88377724,6.118666,-5.333792,18.25071,19.974379244995827
2391685.4418886197,-2.2541194,-2.7518444,10.988234,11.549674814038001
2391690.0,-0.703515,0.19143265,0.17946811,0.7508585866979178
2391694.093220339,6.0253425,-4.0918727,12.964776,14.870561225639317
2391698.651331719,-0.17468229,-5.051429,17.877417,18.578199251713542
2391703.2094430993,-3.2160685,0.96194905,-0.16750357,3.361026631470048
2391707.7675544797,8.315355,-5.228504,8.994942,13.318834950452874
2391712.3256658595,1.5506045,-5.080144,23.168137,23.76919875441588
2391716.88377724,-4.816924,0.09093051,1.7013576,5.1093681470904615
2391721.4418886197,5.8458743,-3.5391111,4.4890957,8.176278732608264
2391726.0,3.5606472,-5.884161,24.969995,25.89984960297673
2391730.093220339,-4.5537043,-1.6080343,4.42688,6.551279546486699
2391734.651331719,3.6085055,-1.7779307,0.5934412,4.066266343390479
2391739.2094430993,5.721443,-7.207439,22.187044,24.01972123899247
2391743.7675544797,-4.637456,-2.0674727,8.0641,9.529435992081655
2391748.3256658595,3.328535,-1.9956853,-1.8640754,4.305424736277043
2391752.88377724,6.688178,-6.5206747,16.434492,18.903530114795174
2391757.4418886197,-3.4984317,-4.331164,13.783151,14.865169270588947
2391762.0,-0.8542682,-0.4091873,-2.9289196,3.0782752357897905
2391767.093220339,9.509417,-7.6261983,11.737214,16.92188242107266
2391771.651331719,-2.340264,-5.0873227,19.662525,20.4443776432362
2391776.2094430993,-3.7472942,-0.3852582,-0.72505116,3.8361878064868282
2391780.7675544797,8.411072,-6.850896,6.893968,12.853314863373729
2391785.3256658595,-0.84948236,-6.034914,22.579481,23.387491731622443
2391789.88377724,-4.4220943,-1.8114314,2.7997024,5.538459645385548
2391794.4418886197,6.11388,-4.323985,2.160796,7.79393445496182
2391799.0,1.1414171,-8.088029,22.41437,23.856299557934662
2391803.093220339,-7.0207925,-1.380708,6.6498914,9.76826174614062
2391807.651331719,5.704693,-4.374236,-0.95237744,7.251516089492317
2391812.2094430993,2.708772,-8.214853,19.93771,21.73323573708464
2391816.7675544797,-6.9920774,-2.9241338,10.516831,12.963156989346931
2391821.3256658595,1.3950654,-2.005257,-2.8930259,3.786404886484932
2391825.88377724,6.690571,-9.442415,16.865215,20.45381182895968
2391830.4418886197,-6.345992,-4.1277666,14.962854,16.76893173083651
2391835.0,-2.1488314,-0.6580497,-1.9597918,2.9818265698466253
2391840.093220339,8.368,-10.114822,12.799665,18.334788578107712
2391844.651331719,-6.405815,-3.9626558,16.389027,18.03710932522802
2391849.2094430993,-4.453202,-1.2658484,0.9786994,4.731937524962362
2391853.7675544797,6.345992,-7.0136137,8.217246,12.529386394449158
2391858.3256658595,-4.3909864,-6.5661397,16.386635,18.191117578316238
2391862.88377724,-8.123923,0.30150643,4.474738,9.279671934174416
2391867.4418886197,6.539818,-6.250276,5.6568346,10.66934614871301
2391872.0,-2.6848428,-6.9729342,15.027463,16.78257538146665
2391877.093220339,-9.492666,-0.2919348,8.906404,13.019983330489445
2391881.651331719,4.0248713,-4.905462,2.785345,6.929739763081488
2391886.2094430993,1.4501023,-8.435001,14.414878,16.764269930580046
2391890.7675544797,-10.533582,-0.28954187,12.364156,16.245385124322016
2391895.3256658595,0.37568656,-1.6199988,1.7827165,2.43795295744982
2391899.88377724,6.5972476,-10.777658,11.957362,17.39712889702533
2391904.4418886197,-10.763301,0.27279153,14.039192,17.69242707059449
2391909.0,-0.60301286,-1.8880045,2.5891266,3.2606382890736576
2391913.093220339,7.3581924,-9.224661,9.846817,15.36870752509227
2391917.651331719,-9.466345,-2.0866158,14.541702,17.476462748869942
2391922.2094430993,-3.646792,-0.54079723,3.3357139,4.971774407381421
2391926.7675544797,9.344306,-8.827438,9.009299,15.697362349671394
2391931.3256658595,-8.781973,-2.7015932,13.780758,16.562938949521588
2391935.88377724,-6.45128,0.5360114,6.2072034,8.96859497961088
2391940.4418886197,9.014085,-8.664721,6.980113,14.319675132063402
2391945.0,-6.295741,-3.491253,13.347641,15.165247195940163
2391949.093220339,-7.8630958,0.18664683,8.650363,11.691530807849574
2391953.651331719,6.561354,-5.7381935,4.4388447,9.781695825749049
2391958.2094430993,-2.1272953,-7.0279713,13.184923,15.091718272050892
2391962.7675544797,-10.93559,2.160796,10.18661,15.100436791491033
2391967.3256658595,6.6235695,-5.1662884,3.7449012,9.197091591968967
2391971.88377724,1.4381378,-8.238783,13.670684,16.026022172726886
2391976.4418886197,-11.993256,1.7109293,12.761379,17.595972906684516
2391981.0,2.9576344,-3.0437791,2.3306925,4.8419334963644864
2391986.093220339,6.4177794,-9.557275,14.020048,18.14086943271996
2391990.651331719,-11.966933,1.4764243,13.175352,17.859933215553284
2391995.2094430993,-0.33740005,-1.0385221,1.8592896,2.1562292926765867
2391999.7675544797,9.054764,-10.382828,13.012634,18.950475244469096
2392004.3256658595,-11.708499,1.8018597,13.893225,18.25807624346306
2392008.88377724,-0.7202653,-1.691786,2.0435436,2.7489984389375435
2392013.4418886197,9.069121,-8.387143,11.560139,16.918331392735247
2392018.0,-10.739371,-0.74658734,13.713757,17.434408885503927
2392022.093220339,-4.9461412,0.5814767,2.656128,5.644239884640298
2392026.651331719,12.3833,-9.095444,9.624276,18.13008298302333
2392031.2094430993,-8.743686,-2.3282995,14.501023,17.09247470306232
2392035.7675544797,-7.238547,1.225169,4.551311,8.637825743119098
2392040.3256658595,9.904246,-7.312727,6.350778,13.852885844123923
2392044.88377724,-6.9705415,-3.280677,16.69532,18.38708786850031
2392049.4418886197,-7.98992,0.6939433,5.9009113,9.956964049371805
2392054.0,7.1739383,-4.785816,3.0342073,9.141982249897238
2392058.093220339,-3.6013267,-6.4417086,18.346426,19.775148815139744
2392062.651331719,-10.801587,2.3474429,6.8532887,13.005857753061775
2392067.2094430993,7.207439,-5.0633936,1.196454,8.88913009587316
2392071.7675544797,-0.3565433,-7.0782223,19.696026,20.93231459360546
2392076.3256658595,-10.533582,0.51926106,8.913583,13.808618457218858
2392080.88377724,1.536247,-1.9478272,-0.7944455,2.604847269714501
2392085.4418886197,3.8932614,-8.164602,21.277739,23.12056199791119
2392090.0,-9.930569,-0.5264398,9.796566,13.959442858479024
2392095.093220339,-1.8856115,-0.74658734,-1.2730271,2.394477267069983
2392099.651331719,5.4199367,-8.513967,19.91378,22.325366330644965
2392104.2094430993,-9.894675,-0.6221561,10.614941,14.524759688265869
2392108.7675544797,-3.1873536,-1.5482116,-0.4498667,3.571912957726771
2392113.3256658595,5.9750915,-6.898754,15.647226,18.11436465021515
2392117.88377724,-7.623805,-3.8717253,12.981526,15.544538486727777
2392122.4418886197,-8.336892,0.5144752,-0.021536173,8.352778984136151
2392127.0,7.0207925,-6.8580747,11.033699,14.767099564282669
2392132.093220339,-6.2909555,-4.7212076,15.149501,17.069660302837868
2392136.651331719,-9.722385,-0.33500713,2.708772,10.098239728455638
2392141.2094430993,3.5726118,-4.4651666,4.020086,6.990161606619035
2392145.7675544797,-3.4577522,-6.2407045,19.442379,20.710107293603432
2392150.3256658595,-11.036092,-0.28236315,4.742744,12.015351689837377
2392154.88377724,-0.39243692,-1.5936768,0.45704544,1.7037320837684895
2392159.4418886197,0.13878867,-8.083243,21.562494,23.028226748753482
2392164.0,-11.718071,0.021536173,5.953555,13.143761596507048
2392168.093220339,-1.4644598,-2.1392598,-0.28236315,2.6078351071703136
2392172.651331719,1.5171037,-5.89134,19.770206,20.68503168754135
2392177.2094430993,-10.110037,-2.0985804,8.468502,13.354115993229847
2392181.7675544797,-6.2981343,-0.36850783,-0.9188767,6.3754708117448615
2392186.3256658595,5.807588,-7.1189017,15.214109,17.772899382371126
2392190.88377724,-8.992549,-2.94567,11.842503,15.158752803951586
2392195.4418886197,-10.492902,1.6367491,1.6463208,10.746641902216128
2392200.0,4.020086,-3.8717253,7.032757,8.978363952697903
2392205.093220339,-5.991842,-3.82626,19.786957,21.025368093339367
2392209.651331719,-11.509888,1.7348584,3.5486827,12.16882921015304
2392214.2094430993,1.0457008,-0.75615895,1.2490981,1.7959712091816376
2392218.7675544797,-0.77530223,-6.618784,24.831207,25.70988596363951
2392223.3256658595,-14.0367985,3.699436,5.3505425,15.470806181062592
2392227.88377724,0.13400285,-0.16271774,0.27279153,0.3447448992495335
2392232.4418886197,3.0796728,-5.527618,20.894873,21.831964249583976
2392237.0,-12.648912,1.2323477,9.478309,15.854084556886917
2392241.093220339,-5.336185,2.0363648,-0.27997026,5.718394468676371
2392245.651331719,6.690571,-5.4797597,15.618511,17.852993937513844
2392250.2094430993,-10.332577,-0.8518753,13.053313,16.669637646441153
2392254.7675544797,-10.239254,3.8190813,1.6463208,11.051609684975231
2392259.3256658595,5.9990206,-4.2593765,8.492431,11.236187993164657
2392263.88377724,-6.8915753,-2.4048727,19.18873,20.530089669353014
2392268.4418886197,-11.53621,3.5702188,3.0916374,12.465505415226943
2392273.0,1.7228938,-0.78487384,4.1493025,4.560822428828055
2392277.093220339,-2.1177237,-5.599405,22.840307,23.61181301547629
2392281.651331719,-13.141851,3.0054924,4.0679436,14.081526813717316
2392286.2094430993,0.5264398,-0.8542682,1.978935,2.218805253910374
2392290.7675544797,1.0361292,-5.541975,20.84941,21.59826261456735
2392295.3256658595,-12.306726,1.3376356,6.5996404,14.02854330451938
2392299.88377724,-3.9435124,1.0457008,0.48336744,4.108335951955068
2392304.4418886197,3.646792,-4.9030685,17.224152,18.275956465423643
2392309.0,-9.167231,-1.3376356,9.559668,13.312199122458031
2392314.093220339,-7.8248096,3.304606,0.911698,8.542789903461992
2392318.651331719,6.269419,-5.15911,12.313905,14.74972158851434
2392323.2094430993,-6.855682,-1.5745336,15.343327,16.878898517722714
2392327.7675544797,-9.088264,3.9674416,2.4623024,10.217635171220017
2392332.3256658595,3.986585,-1.9717562,8.159817,9.29318545752491
2392336.88377724,-2.6010911,-4.008121,20.270325,20.825868156376224
2392341.4418886197,-10.380435,3.9770133,3.668328,11.705840247209334
2392346.0,3.278284,-1.2897775,6.7480006,7.612239097779484
2392350.093220339,0.7896597,-4.326378,20.078892,20.554878082546537
2392354.651331719,-10.777658,2.553233,5.2572193,12.260312617773883
2392359.2094430993,0.97152066,-0.64369226,3.7472942,3.9243350952415343
2392363.7675544797,3.9817991,-4.249805,17.422764,18.37030952407939
2392368.3256658595,-9.066729,-0.08135887,8.207675,12.230213527604237
2392372.88377724,-4.2282686,2.3354783,2.4024796,5.394870014368558
2392377.4418886197,6.1880603,-5.355328,16.022913,17.99181395161669
2392382.0,-6.439316,-1.2132044,12.108115,13.767465428220998
2392386.093220339,-5.7142644,2.6250203,2.5651975,6.7914495818290295
2392390.651331719,4.836067,-3.1371026,10.873374,12.30687689445587
2392395.2094430993,-3.6755068,-2.5412683,18.255495,18.794427166169662
2392399.7675544797,-6.618784,2.988742,2.268477,7.608342019175334
2392404.3256658595,4.8887115,-1.8114314,8.35125,9.845006877074196
2392408.88377724,-0.46901,-3.4768956,20.796764,21.09061796783336
2392413.4418886197,-8.626433,2.7877378,3.6372204,9.768121650717399
2392418.0,4.039229,-2.060294,5.053822,6.789793744184061
2392423.093220339,1.8281817,-2.8188457,20.236824,20.513829116369262
2392427.651331719,-8.059315,0.7657306,5.8243384,9.97305466839102
2392432.2094430993,-0.31586388,0.3613291,3.0246358,3.0624745601942727
2392436.7675544797,5.1184306,-4.7451367,18.906366,20.153543843072843
2392441.3256658595,-6.5804973,-0.58626246,8.537896,10.795476668222138
2392445.88377724,-2.8068812,1.0313433,2.2517266,3.743330569762159
2392450.4418886197,5.2452545,-4.3790216,14.847995,16.34476920800847
2392455.0,-4.187589,-2.3043704,13.905189,14.703751415847528
2392460.093220339,-4.29527,1.0911661,0.59583414,4.4715775910833475
2392464.651331719,5.939198,-3.256748,11.466816,13.317970926404818
2392469.2094430993,-1.0074143,-3.7018287,19.224623,19.603687122276696
2392473.7675544797,-7.0710435,2.1033661,0.571905,7.399383789110176
2392478.3256658595,5.415151,-3.720972,8.368,10.639215994498139
2392482.88377724,1.5194967,-3.8095098,22.177473,22.55352619444099
2392487.4418886197,-6.793466,0.052643977,1.8664683,7.045399605159048
2392492.0,1.1653463,-1.7898953,4.1014442,4.624240663027761
2392496.093220339,4.462774,-5.436687,23.182493,24.22605826390447
2392500.651331719,-5.77648,-0.9188767,3.4051082,6.768073391587161
2392505.2094430993,-1.304135,-0.25604117,1.8425392,2.271844158937098
2392509.7675544797,5.49651,-5.7621226,21.160486,22.609286737836882
2392514.3256658595,-4.2330546,-1.7587874,7.1284733,8.475093861060937
2392518.88377724,-2.4311945,-0.24407662,-0.39482984,2.4751102391237647
2392523.4418886197,6.214382,-4.8312817,17.540016,19.225295518845346
2392528.0,-1.2060257,-4.000942,13.718542,14.34086571592484
2392533.093220339,-6.195239,1.6582853,-1.6271775,6.616540109439627
2392537.651331719,7.1260805,-5.2955055,13.33807,16.022718655643633
2392542.2094430993,1.4812101,-4.292877,19.684061,20.201114666007715
2392546.7675544797,-6.6044264,0.69633627,-0.31347096,6.648428108710945
2392551.3256658595,3.9124048,-2.785345,7.255297,8.700827124262211
2392555.88377724,4.3622713,-5.55394,23.26146,24.309898842858306
2392560.4418886197,-5.8243384,-0.54558307,1.7372513,6.10234551327085
2392565.0,0.8446966,-0.9212696,2.6728783,2.950682705501662
2392569.093220339,6.013378,-6.738429,23.08917,24.792678589612397
2392573.651331719,-4.9868207,-1.0768087,6.0492716,7.913380097083087
2392578.2094430993,0.7130866,-0.5695121,-1.1270597,1.450206915757217
2392582.7675544797,7.84156,-5.6568346,18.90158,21.231099062972625
2392587.3256658595,-2.3594074,-3.512789,13.318927,13.974988596382637
2392591.88377724,-3.8501892,1.6750357,-2.3354783,4.8045978355989405
2392596.4418886197,9.387379,-6.0827723,14.658955,18.43930489566549
2392601.0,-0.48815325,-3.988978,19.028404,19.448146386408794
2392605.093220339,-6.176096,1.251491,-0.40679437,6.314734609131305
2392609.651331719,7.8511314,-4.4890957,7.9516335,12.042454890185253
2392614.2094430993,2.7494514,-5.125609,23.433748,24.144810952859974
2392618.7675544797,-6.1234517,-0.026321989,3.0054924,6.821314985821691
2392623.3256658595,3.9602628,-1.3256711,2.1966896,4.7187424711661485
2392627.88377724,5.5395823,-6.905933,25.00589,26.52684333559239
2392632.4418886197,-6.5230675,0.047858164,6.195239,8.996315150134453
2392637.0,3.926762,-1.5314612,-1.8832186,4.616421287873909
2392642.093220339,7.267262,-6.350778,22.007576,24.030790240391678
2392646.651331719,-4.898283,-2.4335876,11.81618,13.020661839836052
2392651.2094430993,0.18425392,-0.019143265,-4.2976627,4.30165324667174
2392655.7675544797,10.43308,-7.6261983,18.035349,22.187425996476563
2392660.3256658595,-3.0246358,-3.0772798,16.836502,17.380617718773223
2392664.88377724,-4.000942,0.82076746,-2.9241338,5.023121996434218
2392669.4418886197,9.794173,-7.2146177,11.031306,16.421517754967667
2392674.0,-0.60540575,-4.6039553,22.210974,22.691194031059872
2392678.093220339,-4.2234826,-0.9739136,-0.41875893,4.354500202574626
2392682.651331719,7.418015,-4.656599,4.9102473,10.040985476246009
2392687.2094430993,0.87819725,-6.716893,24.78335,25.69245646499876
2392691.7675544797,-6.874825,-0.16271774,1.9956853,7.160478731214262
2392696.3256658595,7.542446,-4.7259936,-1.0193789,8.95894193038007
2392700.88377724,2.6010911,-7.530482,25.881695,27.080176700602383
2392705.4418886197,-7.8463454,-1.4213874,6.695357,10.412169977215552
2392710.0,3.8860826,-2.6226273,-5.417544,7.16446752527109
2392715.093220339,5.2213254,-7.6620917,24.261696,25.973058752259238
2392719.651331719,-6.166524,-2.7374868,11.270597,13.135684563781183
2392724.2094430993,-0.55036885,-0.6819788,-6.2670264,6.328002911898565
2392728.7675544797,7.4323726,-8.851367,19.86353,22.981442171778948
2392733.3256658595,-5.860232,-2.0746512,16.336384,17.4792430869
2392737.88377724,-1.4261732,-1.3184924,-4.1301594,4.564056186624389
2392742.4418886197,6.6977496,-6.058843,13.323712,16.096295526048632
2392747.0,-3.4553592,-4.714029,20.715405,21.524162723039673
2392752.093220339,-4.4867024,-0.4785816,-2.084223,4.970264005840467
2392756.651331719,8.38475,-5.4582233,7.061472,12.245840965893152
2392761.2094430993,-1.7061435,-5.336185,23.046099,23.717261121694012
2392765.7675544797,-7.3031554,-0.5049036,2.1512244,7.630122729091418
2392770.3256658595,6.0181637,-4.0464077,0.24168372,7.256040284833734
2392774.88377724,0.019143265,-5.8482676,24.670883,25.354586732689878
2392779.4418886197,-7.193082,-1.8329676,6.046879,9.574181141069703
2392784.0,2.3498356,-1.6702498,-5.077751,5.839093847458559
2392788.093220339,3.0629225,-8.609683,24.902994,26.52672700816162
2392792.651331719,-8.485252,-1.040915,9.789387,12.996734335074253
2392797.2094430993,1.5553902,-2.08183,-5.666406,6.233892185464234
2392801.7675544797,4.948534,-7.3773355,19.449556,21.38219578120667
2392806.3256658595,-6.190453,-3.3716075,15.872159,17.367062987176222
2392810.88377724,-2.9839563,-0.8734115,-4.1971607,5.223313200475962
2392815.4418886197,6.901147,-6.1354165,13.127494,16.049930350755957
2392820.0,-4.950927,-4.3120203,19.420841,20.500591756684052
2392825.093220339,-6.3723145,-0.74658734,-0.10289505,6.41672596691436
2392829.651331719,6.50871,-4.9341764,3.7185793,8.974253986867401
2392834.2094430993,-3.2232473,-4.9030685,22.084148,22.850360976548128
2392838.7675544797,-7.9635983,-1.301742,3.9722273,8.993999101689536
2392843.3256658595,2.5388756,-1.3591717,-2.3522286,3.718362059968638
2392847.88377724,0.7394086,-7.2648687,23.132242,24.257486725804007
2392852.4418886197,-9.842031,-0.25604117,7.97317,12.668960933501847
2392857.0,1.5075321,-1.7324655,-3.6659353,4.325872324168474
2392861.093220339,3.43143,-7.379729,19.564417,21.189656073382363
2392865.651331719,-8.487645,-2.237369,12.775736,15.5004957349719
2392870.2094430993,-2.6393776,-0.9164838,-2.1296883,3.513093925046851
2392874.7675544797,6.2813835,-5.996628,14.285662,16.718117861251613
2392879.3256658595,-6.795859,-3.7879734,16.853252,18.5624498653193
2392883.88377724,-8.57379,0.45943835,0.650871,8.610725382927487
2392888.4418886197,6.819788,-5.991842,6.408208,11.112011910053553
2392893.0,-4.1469097,-5.4319015,20.394756,21.509265126107685
2392897.093220339,-9.672134,-1.4692456,3.4577522,10.376170248395127
2392901.651331719,1.8449322,-2.785345,-0.30389932,3.3547393920121875
2392906.2094430993,0.9667349,-8.731722,22.467014,24.123520960431087
2392910.7675544797,-11.354349,-1.6080343,6.3651357,13.115714544133384
2392915.3256658595,-1.4022441,-2.4886243,-2.0483294,3.5149954130040713
2392919.88377724,3.2088897,-9.176803,19.480665,21.771701707716833
2392924.4418886197,-10.074143,-3.254355,10.315826,14.781591582530954
2392929.0,-5.912876,-1.8903974,-1.3400285,6.35069927662419
2392934.093220339,4.42688,-7.150009,14.201909,16.50497241678283
2392938.651331719,-6.5278535,-6.420172,14.14448,16.849266877150658
2392943.2094430993,-10.782444,-0.33740005,0.18425392,10.789295014685221
2392947.7675544797,4.2354474,-6.3364205,5.7070856,9.521557933275119
2392952.3256658595,-3.4745026,-7.2696548,18.712542,20.373494480091868
2392956.88377724,-12.060257,-2.057901,2.8930259,12.571967001623923
2392961.4418886197,-2.3354783,-2.6417706,0.93084127,3.64689954108013
2392966.0,1.7827165,-9.705635,22.01954,24.129599472104736
2392970.093220339,-11.7228565,-2.7542372,4.326378,12.79565292090795
2392974.651331719,-6.590069,-1.3256711,-0.3852582,6.733114967888447
2392979.2094430993,2.9241338,-8.466109,17.973133,20.08131145906244
2392983.7675544797,-7.961205,-4.405344,9.035621,12.823037380667733
2392988.3256658595,-8.901618,-1.3328499,-0.5695121,9.018848923554513
2392992.88377724,1.3663505,-4.9892135,11.344777,12.468485482092904
2392997.4418886197,-4.23784,-7.9875274,16.71207,19.001399041024605
2393002.0,-13.225603,0.70112205,0.35893622,13.249037023596586
2393007.093220339,0.92605543,-4.115802,4.4292727,6.11685061233326
2393011.651331719,-0.7681235,-7.9564195,21.58403,23.01662390560641
2393016.2094430993,-11.292133,-1.7611804,3.9219763,12.08287723138801
2393020.7675544797,-4.307235,-1.0050215,-0.18664683,4.426870068099617
2393025.3256658595,4.9461412,-8.116744,20.964268,23.01839218337583
2393029.88377724,-8.269891,-4.132552,8.427822,12.509886764006659
2393034.4418886197,-9.722385,1.3615648,-0.5934412,9.835181810758836
2393039.0,4.7523155,-6.3603497,13.472073,15.63762455858176
2393044.093220339,-4.3838077,-5.6855497,16.31724,17.82682154954577
2393048.651331719,-10.107644,-0.035893623,0.3326142,10.113178916095062
2393053.2094430993,-0.22014755,-2.452731,4.891104,5.476061782060901
2393057.7675544797,1.2730271,-8.32732,22.938417,24.436362880871275
2393062.3256658595,-10.160288,-0.057429794,2.234976,10.403358503135363
2393066.88377724,-2.6752713,-0.8638398,1.6606783,3.2651413667341602
2393071.4418886197,3.4075012,-6.2430973,20.387577,21.592605777353455
2393076.0,-7.7817373,-2.1679747,8.810688,11.953400049333052
2393080.093220339,-6.3172774,1.3496002,-0.24407662,6.4644402576573805
2393084.651331719,5.254826,-4.513025,13.273461,14.9721527463295
2393089.2094430993,-3.852582,-5.3002915,16.972897,18.19380967868756
2393093.7675544797,-10.454616,3.1586387,0.36372203,10.927409933726336
2393098.3256658595,3.4529665,-3.2112827,5.620941,7.336912971742445
2393102.88377724,0.27757734,-5.970306,23.084385,23.845553752042385
2393107.4418886197,-9.009299,-0.2584341,3.4577522,9.653512673221528
2393112.0,-3.8836899,0.62454903,0.6460852,3.9862933680168333
2393116.093220339,4.76428,-6.848503,22.263617,23.775386414990148
2393120.651331719,-6.5039244,-2.6393776,7.623805,10.362902556442481
2393125.2094430993,-6.9896846,1.6726427,-0.28236315,7.192576267083887
2393129.7675544797,3.8406174,-4.2833056,13.438572,14.618216932148671
2393134.3256658595,-3.9219763,-4.1516957,17.48498,18.394102339705523
2393138.88377724,-8.451752,1.5410328,0.047858164,8.591227174510129
2393143.4418886197,0.31107804,-1.0026284,5.2691836,5.372739437751077
2393148.0,0.49054617,-6.125845,24.498592,25.25762503663776
