timestamp,accel_x,accel_y,accel_z,magnitude
102236.75300601202,0.61497736,0.24168372,9.935354,9.957302208888791
102254.83533734136,0.61497736,0.021536173,10.054999,10.073810890127978
102272.91766867068,0.57669085,0.057429794,9.966462,9.983297817613007
102291.0,0.6652284,0.10289505,9.961677,9.984394066131909
102309.75300601202,0.67240715,0.0598227,9.906639,9.929612601059894
102327.83533734136,0.58626246,0.107680865,9.8922825,9.910224614028618
102345.91766867068,0.48576033,0.08135887,10.023892,10.035984913878329
102364.0,0.57429796,0.035893623,9.901854,9.918559327661868
102382.75300601202,0.6389065,0.011964541,9.95689,9.977374561380543
102400.83533734136,0.6460852,-0.019143265,9.935354,9.956357348727993
102418.91766867068,0.5814767,0.002392908,9.94014,9.957133327331295
102437.0,0.5623334,0.021536173,9.920997,9.936944406280636
102454.75300601202,0.60301286,0.13400285,9.923389,9.942596769378435
102472.83533734136,0.7130866,-0.009571632,9.961677,9.987171409741984
102490.91766867068,0.78008807,-0.047858164,9.973641,10.00421624105051
102509.0,0.57669085,0.088537596,10.062179,10.079080189700854
102527.75300601202,0.57429796,0.09332342,9.94014,9.957153741264651
102545.83533734136,0.598227,0.10050214,9.913818,9.932359415607028
102563.91766867068,0.67240715,0.047858164,10.088501,10.110997685996848
102582.0,0.67240715,0.009571632,10.021499,10.044036300139068
102599.75300601202,0.5072965,0.27279153,9.901854,9.918592520870488
102617.83533734136,0.5647263,0.22014755,9.832459,9.851123322970011
102635.91766867068,0.7346228,0.06460852,9.8922825,9.91973275743569
102654.0,0.7633377,0.11485959,10.054999,10.084586360364874
102671.75300601202,0.49533197,0.21296883,9.947319,9.961920737027405
102689.83533734136,0.4977249,0.10050214,9.985605,9.998506787128246
102707.91766867068,0.57908374,0.03828653,10.016713,10.033511008649008
102726.0,0.650871,0.15314612,9.95689,9.979315871582182
102743.75300601202,0.60540575,0.234505,9.9425335,9.963708201055484
102761.83533734136,0.6269419,0.3254355,9.909033,9.934178345778019
102779.91766867068,0.6484781,0.2991135,9.925783,9.951440141765957
102798.0,0.6676214,0.2368979,9.8922825,9.917615237977758
102816.75300601202,0.67240715,0.06221561,10.066964,10.089587024987436
102834.83533734136,0.703515,0.2392908,9.9927845,10.020376016179727
102852.91766867068,0.6748001,0.17946811,9.911426,9.935991612865974
102871.0,0.70830077,0.21536173,9.94014,9.967670433713746
102888.75300601202,0.59583414,0.32064968,9.913818,9.936881899106863
102906.83533734136,0.55754757,0.21057591,9.985605,10.003374866649267
102924.91766867068,0.63651353,0.16511066,9.952105,9.97380594030903
102943.0,0.68915755,0.208183,9.904246,9.930375980733409
102960.75300601202,0.73701566,0.13878867,9.95689,9.985094533859236
102978.83533734136,0.6173703,0.234505,9.966462,9.98831835094332
102996.91766867068,0.57908374,0.28954187,9.947319,9.96836635362969
103015.0,0.66283554,0.18186101,9.95689,9.980585296070833
103032.75300601202,0.703515,0.36611494,9.916211,9.947874853507015
103050.83533734136,0.60779864,0.23211208,9.930569,9.951858915209197
103068.91766867068,0.59583414,0.12203831,9.909033,9.92768083021338
103087.0,0.72505116,0.28475606,9.909033,9.939603623556279
103105.75300601202,0.72744405,0.3278284,9.949712,9.98165393052028
103123.83533734136,0.57908374,0.2632199,9.976034,9.996293166111347
103141.91766867068,0.61497736,0.22014755,9.959284,9.980681333944071
103160.0,0.6389065,0.107680865,9.99757,10.018542937440024
103177.75300601202,0.60540575,0.28954187,9.966462,9.989029753387472
103195.83533734136,0.6125845,0.2368979,9.932961,9.954651908137505
103213.91766867068,0.75615895,0.1459674,10.038249,10.06774680976478
103232.0,0.60540575,0.33022133,9.935354,9.959258072478894
103249.75300601202,0.5838696,0.26082698,9.961677,9.982181278439551
103267.83533734136,0.6293348,0.17228939,10.019106,10.040330221841991
103285.91766867068,0.54079723,0.27757734,9.873138,9.891833237105303
103304.0,0.6819788,0.18186101,9.976034,10.00097109683673
103321.75300601202,0.78008807,0.1172525,9.985605,10.01671566741003
103339.83533734136,0.703515,0.19143265,9.959284,9.985935990550262
103357.91766867068,0.5049036,0.49533197,9.84921,9.874574372087995
103376.0,0.4977249,0.416366,9.856388,9.877726212473194
103394.75300601202,0.60301286,0.28475606,9.842031,9.864597545160832
103412.83533734136,0.6006199,0.27757734,9.995177,10.017053294521622
103430.91766867068,0.703515,0.3254355,9.873138,9.903519353589877
103449.0,0.50968945,0.33979294,9.925783,9.944667452489506
103467.75300601202,0.6460852,0.571905,9.95689,9.994206316000488
103485.83533734136,0.6460852,0.10050214,9.918604,9.940132397237958
103503.91766867068,0.64369226,-0.09810923,9.916211,9.937565383086348
103522.0,0.598227,-0.5647263,8.801116,8.839481556228098
103539.75300601202,-0.15553902,0.5695121,9.377807,9.396371669322047
103557.83533734136,0.14118157,1.170132,9.930569,10.00026708627788
103575.91766867068,0.54797596,0.33022133,9.887496,9.90817344062673
103594.0,0.45465255,-0.067001425,10.14593,10.156332689365465
103611.75300601202,0.39482984,0.2632199,10.01432,10.025556362651923
103629.83533734136,0.75376606,0.08135887,9.918604,9.947536772877575
103647.91766867068,0.7896597,0.019143265,9.928176,9.959548563733948
103666.0,0.6221561,0.052643977,9.875532,9.895250471014142
103684.75300601202,0.84230363,-0.1483603,10.019106,10.055544302670208
103702.83533734136,0.3828653,-0.39243692,10.339756,10.35428156434135
103720.91766867068,0.17707519,0.46422416,10.004748,10.017077529756133
103739.0,1.1055236,0.15553902,9.751101,9.814802368315958
103756.75300601202,0.832732,0.067001425,9.830067,9.865502977510323
103774.83533734136,0.21536173,0.5695121,9.923389,9.94205079207082
103792.91766867068,0.67001426,0.37568656,10.026285,10.055667576108162
103811.0,0.71787244,0.07896597,9.820495,9.84701470038278
103828.75300601202,0.7441944,0.11246668,9.968855,9.99722681897968
103846.83533734136,0.7872668,-0.21536173,10.076536,10.10953744977617
103864.91766867068,0.208183,0.34457877,10.528795,10.53648892384217
103883.0,0.6197632,0.17468229,10.076536,10.097088594531094
103901.75300601202,-16.202381,-2.4886243,-19.952068,25.82238212195644
103919.83533734136,32.73498,4.300056,6.956184,33.74104167101828
103937.91766867068,78.341415,19.17916,12.522088,81.62119927070154
103956.0,-35.113533,78.36774,-38.23628,94.00253177807546
103973.75300601202,78.341415,-47.604515,78.40124,120.62471382815816
103991.83533734136,78.341415,-78.40124,-2.711165,110.86695699529707
104009.91766867068,75.34789,-78.40124,-16.793428,110.02762464481765
104028.0,78.341415,-78.40124,74.71616,133.6661374577923
104045.75300601202,78.341415,-3.328535,78.40124,110.8837719550794
104063.83533734136,-78.40124,78.36774,-77.34836,135.1703588104093
104081.91766867068,-78.40124,47.360435,48.84643,103.80625684741612
104100.0,78.341415,-78.40124,78.40124,135.760399864163
104117.75300601202,-44.074974,78.36774,-66.908104,112.07497663030357
104135.83533734136,-78.40124,19.521345,62.646336,102.23698331998808
104153.91766867068,78.341415,-23.35957,78.40124,113.26871257467671
104172.0,-78.40124,26.03484,-78.36774,113.8686524029805
104190.75300601202,78.341415,-78.40124,38.695717,117.39459208960145
104208.83533734136,-12.0147915,78.36774,-66.106476,103.22753536065194
104226.91766867068,-64.75209,-25.970232,43.26617,82.0929203766733
104245.0,78.341415,67.59487,40.36118,111.06515477642628
104262.75300601202,-78.40124,63.634605,-24.350233,103.87035782261421
104280.83533734136,78.341415,-58.78657,78.40124,125.45912700997376
104298.91766867068,-78.40124,16.58046,-78.36774,112.08554215444916
104317.0,78.341415,-78.40124,77.791046,135.40893092966186
104334.75300601202,-64.90285,77.44886,-48.525784,112.09575177604526
104352.83533734136,25.477293,-72.17968,-15.5251875,78.10268952104278
104370.91766867068,69.95428,78.090164,-10.799194,105.39590881488205
104389.0,-78.40124,37.64523,12.084186,87.80629434484237
104406.75300601202,78.341415,-37.17383,78.40124,116.90177661014705
104424.83533734136,-78.40124,13.821437,-78.36774,111.71073908532773
104442.91766867068,78.341415,-78.40124,78.40124,135.760399864163
104461.0,-53.957684,78.36774,-50.45686,107.69786003635845
104479.75300601202,-43.605965,-70.05717,-12.110508,83.40354702294255
104497.83533734136,78.341415,61.58149,57.949055,115.27250405111944
104515.91766867068,-78.40124,26.080305,-31.63903,88.47578743233386
104534.0,78.341415,-75.632645,78.40124,134.1805825275619
104552.75300601202,-78.40124,68.774574,-78.36774,130.45381993305784
104570.83533734136,78.341415,-78.40124,43.546143,119.08147760217066
104588.91766867068,23.120277,78.36774,-26.35549,85.85255811217525
104607.0,-78.40124,-60.341965,44.563126,108.50704757061037
104624.75300601202,78.341415,27.092505,78.40124,114.0970445056087
104642.83533734136,-78.40124,3.1371026,-74.48884,108.19049464165568
104660.91766867068,78.341415,-78.40124,78.40124,135.760399864163
104679.0,-78.40124,78.36774,-78.36774,135.7562513439171
104696.75300601202,33.433712,-78.40124,1.5745336,85.24697465420151
104714.83533734136,67.58051,78.36774,30.777584,107.96243643714584
104732.91766867068,-78.40124,2.6250203,39.442303,87.80284978892668
104751.0,78.341415,-44.137188,78.40124,119.29888139579168
104769.75300601202,-78.40124,46.1592,-78.36774,120.07884431024976
104787.83533734136,78.341415,-78.40124,74.125114,133.33665761242415
104805.91766867068,-67.714516,78.36774,-76.48452,128.75030155091775
104824.0,-46.659313,-73.86429,-4.63267,87.48992203771225
104841.75300601202,77.86284,76.13037,52.854553,121.04568915096608
104859.83533734136,-78.40124,42.627266,-3.955477,89.32795776502385
104877.91766867068,78.341415,-73.52928,78.40124,133.00634103326888
104896.0,-78.40124,78.36774,-78.36774,135.7562513439171
104913.75300601202,77.45365,-78.40124,3.3022132,110.25754823992031
104931.83533734136,21.452421,78.36774,-4.9820347,81.40349936716999
104949.91766867068,-78.40124,-38.87758,17.281582,89.20131017320723
104968.0,78.341415,23.29496,76.494095,111.94364222890395
104986.75300601202,-78.40124,0.37329367,-65.37664,102.08329363510595
105004.83533734136,78.341415,-78.40124,78.03273,135.54792026804662
105022.91766867068,-78.40124,78.36774,-73.744644,133.1410140600256
105041.0,70.58361,-78.40124,-8.387143,105.82601098913324
105058.75300601202,45.324074,78.36774,21.177237,92.97445737200752
105076.83533734136,-78.40124,-51.9955,66.27877,115.07893728437233
105094.91766867068,78.341415,30.143463,78.40124,114.85974098600516
105113.0,-78.40124,1.7779307,-72.55537,106.83724625311392
105130.75300601202,78.341415,-78.40124,78.40124,135.760399864163
105148.83533734136,-78.40124,78.36774,-78.36774,135.7562513439171
105166.91766867068,39.79406,-78.40124,-18.70297,89.88950290018352
105185.0,67.88441,78.36774,43.773468,112.5429353380421
105202.75300601202,-78.40124,-8.918368,46.994324,91.84093972481989
105220.83533734136,78.341415,-11.088737,78.40124,111.38712594368792
105238.91766867068,-78.40124,16.089914,-77.64508,111.50963283174863
105257.0,78.341415,-78.40124,73.0507,132.74236892654065
105275.75300601202,-78.40124,78.36774,-78.36774,135.7562513439171
105293.83533734136,64.4817,-78.40124,-0.72983694,101.51441636726574
105311.91766867068,31.708426,78.36774,19.784565,86.82370623478533
105330.0,-78.40124,-49.28194,55.881584,108.15828897523414
105347.75300601202,78.341415,46.66171,78.40124,120.25575627746028
105365.83533734136,-78.40124,15.5251875,-44.996243,91.71939688289933
105383.91766867068,78.34381,-51.471455,78.40124,122.20400025641847
105402.0,-78.40124,50.770332,-78.36774,121.92573033464029
105419.75300601202,78.341415,-78.40124,60.42332,126.2343429402721
105437.83533734136,-78.40124,78.36774,-65.35989,128.6863331012944
105455.91766867068,52.74209,-78.40124,36.850784,101.42220059001065
105474.0,22.390442,78.36774,-0.8279462,81.5077914102269
105491.75300601202,-78.40124,-28.647896,35.94148,90.8803959242851
105509.83533734136,78.341415,32.83309,78.40124,115.59473836073995
105527.91766867068,-78.40124,10.160288,-57.250324,97.60935141617078
105546.0,78.34381,-57.580547,78.40124,124.90006561916975
105564.75300601202,-77.798225,36.04198,-78.36774,116.15976415342202
105582.83533734136,78.34381,-78.40124,74.24476,133.40461531113272
105600.91766867068,-77.8413,78.36774,-70.318,130.94041309846858
105619.0,63.354633,-78.40124,16.874788,102.2023601789471
105637.75300601202,2.895419,78.36774,-1.3448143,78.43273965248598
105655.83533734136,-78.21938,-69.42305,57.618835,119.4058684723834
105673.91766867068,72.45965,70.46397,75.714005,126.28611364446775
105692.0,-78.40124,-0.33979294,43.71843,89.76731595878633
105709.75300601202,78.341415,12.730271,78.40124,111.56250058811548
105727.83533734136,-78.40124,-5.230897,-62.452507,100.37147178131472
105745.91766867068,78.341415,-37.458584,78.40124,116.99263760179475
105764.0,-78.40124,26.152092,-78.36774,113.89551800760934
105781.75300601202,78.341415,-77.838905,69.705414,130.59524178434927
105799.83533734136,-78.40124,63.948074,-78.36774,127.97504942196613
105817.91766867068,78.34381,-78.40124,48.681324,121.05526963022584
105836.0,-78.40124,78.36774,-71.47138,131.89547098118874
105854.75300601202,78.34381,-78.40124,-3.1658175,110.88069894845093
105872.83533734136,-64.381195,78.36774,-31.167627,106.10307212869358
105890.91766867068,52.378365,-78.40124,-15.594582,95.56902501001854
105909.0,-8.88726,78.36774,4.587205,79.00334494644656
105926.75300601202,-36.324345,-77.25025,14.48188,86.58397087842486
105944.83533734136,20.526365,78.36774,22.76852,84.15010300535124
105962.91766867068,-77.34836,-47.9132,10.949947,91.64248397022207
105981.0,71.41873,71.952354,64.99617,120.42540577313042
105998.75300601202,-78.40124,-33.256638,38.26499,93.36470352494429
106016.83533734136,72.69655,64.062935,65.90787,117.18658349253819
106034.91766867068,-78.40124,2.5173392,51.483418,93.82768119882417
106053.0,78.341415,41.933323,78.40124,118.50120385701638
106070.75300601202,-78.40124,-10.296683,43.041237,90.02957401226699
106088.83533734136,78.34381,23.522287,78.40124,113.30403781226894
106106.91766867068,-78.40124,-0.442688,33.548573,85.27870283100742
106125.0,78.34381,46.207054,78.40124,120.08163405872115
106143.75300601202,-78.40124,10.691513,28.5785,84.12962347483061
106161.83533734136,78.341415,23.206423,78.40124,113.237228004728
106179.91766867068,-78.40124,-10.189003,31.263344,85.01745052478311
106198.0,78.34381,24.024797,78.205025,113.27386888182966
106215.75300601202,-78.40124,3.615684,41.485847,88.77445074813399
106233.83533734136,78.34381,34.15637,78.40124,115.97915593084217
106251.91766867068,-78.40124,7.6764493,46.759815,91.60874743291328
106270.0,78.34381,55.027313,76.43188,122.50546935402708
106287.75300601202,-78.40124,-13.802294,56.427166,97.5770609108083
106305.83533734136,78.34381,41.234592,78.40124,118.25734047516951
106323.91766867068,-78.40124,2.94567,63.25174,100.77804333441932
106342.0,78.34381,51.13166,78.40124,122.06127007863428
106360.75300601202,-78.40124,-1.5458187,63.81168,101.09932983661797
106378.83533734136,78.34381,57.369972,77.89155,124.48357246640772
106396.91766867068,-78.40124,-5.1878247,66.75017,103.09826940198575
106415.0,77.649864,66.44627,75.41728,127.0132839459314
106432.75300601202,-78.40124,13.227996,48.96608,93.3777880562611
106450.83533734136,78.34381,45.130245,77.166504,118.86614706743944
106468.91766867068,-78.40124,-8.088029,46.228592,91.3742489159003
106487.0,78.34381,45.316895,75.8839,118.10901666243406
106504.75300601202,-78.40124,-1.1031306,64.66116,101.63186972207023
106522.83533734136,78.34381,54.35969,75.45078,121.59584147831947
106540.91766867068,-78.40124,-6.408208,54.156296,95.50248143241348
106559.0,78.34381,40.08839,77.05882,116.97390015683243
106576.75300601202,-78.40124,8.274676,62.12468,100.3728078791511
106594.83533734136,78.34381,41.24177,78.40124,118.25984352935109
106612.91766867068,-78.40124,5.8626246,33.156136,85.32557737975537
106631.0,78.34381,29.052298,78.40124,114.5798543284748
106649.75300601202,-78.40124,3.6778998,44.225727,90.08993456072088
106667.83533734136,78.34381,35.56101,78.40124,116.40056886061082
106685.91766867068,-78.40124,10.710656,27.839092,83.8837745268559
106704.0,78.34381,34.673237,78.40124,116.13242597531436
106722.75300601202,-78.40124,24.02719,22.287546,84.97526110307527
106740.83533734136,78.34381,21.765892,78.40124,112.9524725422572
106758.91766867068,-78.40124,15.96309,22.43112,83.09470392473939
106777.0,78.34381,24.785742,78.40124,113.57306020947162
106794.75300601202,-78.40124,33.395424,-31.60553,90.88959403726192
106812.83533734136,78.34381,8.013849,78.40124,111.1248341940203
106830.91766867068,-78.40124,18.77715,-30.064497,86.04190708906393
106849.0,78.34381,10.251218,78.40124,111.30855523874715
106866.75300601202,-78.40124,29.540451,-28.274603,88.42423793072017
106884.83533734136,78.34381,11.445279,78.40124,111.42486890385621
106902.91766867068,-78.40124,41.890247,-35.582542,95.74792176564657
106921.0,78.34381,22.246866,78.40124,113.04614122417296
106939.75300601202,-78.40124,41.756245,-22.7757,91.70098658426541
106957.83533734136,78.34381,25.281075,78.40124,113.68218748779127
106975.91766867068,-78.40124,30.497614,3.6348274,84.20255853273336
106994.0,78.34381,39.39205,78.40124,117.62755035303677
107011.75300601202,-78.40124,38.123814,14.900639,88.44325112778543
107029.83533734136,78.34381,46.965607,77.48715,119.78221579732548
107047.91766867068,-78.40124,26.13295,21.026484,85.27484118215851
107066.0,74.62284,62.976555,69.17897,119.6676423248763
107083.75300601202,-78.40124,19.181551,30.858942,86.41157696548862
107101.83533734136,65.61594,71.586235,62.679836,115.5802857953973
107119.91766867068,-78.40124,-16.759928,38.35832,88.87637668877588
107138.0,45.407825,77.994446,55.618362,106.01135019251753
107155.75300601202,-62.423794,-60.17446,13.35482,87.72711616643076
107173.83533734136,5.135181,78.36774,36.439205,86.57764386746953
107191.91766867068,17.248081,-78.40124,3.6587565,80.35942527697952
107210.0,-51.449917,78.36774,3.0030997,93.79560352075478
107228.75300601202,78.01838,-78.40124,10.411543,111.09465459239183
107246.83533734136,-78.40124,78.36774,-39.499733,117.67959047055054
107264.91766867068,78.34381,-78.40124,51.308735,122.1355529162329
107283.0,-78.40124,61.880604,-78.33185,126.93243206275108
107300.75300601202,78.34381,-74.55584,76.13755,132.26205942530987
107318.83533734136,-78.40124,6.6044264,-76.92003,110.03210393703974
107336.91766867068,78.34381,-23.493572,68.28163,106.54614721374108
107355.0,-78.40124,6.408208,-8.054528,79.0739842464742
107372.75300601202,71.062195,57.18093,78.40124,120.27571969196661
107390.83533734136,-78.40124,-15.867373,32.74934,86.43521984639322
107408.91766867068,-1.5649619,78.36774,39.46384,87.75731562668523
107427.0,60.846867,-78.40124,-7.7434506,99.54424485849461
107445.75300601202,-78.40124,78.36774,-41.303986,118.29740642014683
107463.83533734136,78.34381,-78.40124,49.40159,121.34671027012558
107481.91766867068,-77.42733,34.259266,-78.36774,115.36980285367248
107500.0,78.34381,-42.25397,71.83989,114.38583977612396
107517.75300601202,-78.40124,15.752514,-24.70199,83.69638248346159
107535.83533734136,68.51135,55.819366,78.40124,118.13704386432757
107553.91766867068,-78.40124,-15.065749,29.076225,84.96562885496245
107572.0,-15.4199,78.36774,38.40139,88.62247312420084
107589.75300601202,76.099266,-78.40124,-14.922174,110.27476590844631
107607.83533734136,-78.40124,76.419914,-63.22063,126.4262858226164
107625.91766867068,78.34381,-78.40124,75.319176,134.00554194574445
107644.0,-73.39288,-1.8090385,-78.36774,107.38384481706959
107661.75300601202,78.34381,1.301742,69.75327,104.90455554094667
107679.83533734136,-78.40124,19.363413,32.75891,87.14839287637076
107697.91766867068,43.943363,74.86931,68.556816,110.6185777872945
107716.0,-28.31528,-62.414223,14.170802,69.98644114037613
107734.75300601202,-70.48789,78.36774,5.984663,105.57396222830356
107752.83533734136,78.34381,-78.40124,20.605331,112.7345850414737
107770.91766867068,-75.29764,46.577957,-78.36774,118.24019342241895
107789.0,78.34381,-55.010563,68.415634,117.66313603892692
107807.75300601202,-78.40124,4.9317837,-48.040024,92.08105576024725
107825.83533734136,75.53932,36.324345,76.00594,113.14835315206768
107843.91766867068,-78.40124,-9.270126,26.688105,83.33633432113811
107862.0,-12.40005,78.36774,37.937164,87.94596252854929
107879.75300601202,72.15814,-78.40124,12.378513,107.26965640799065
107897.83533734136,-78.40124,73.89061,-60.827724,123.71979908943385
107915.91766867068,78.34381,-78.40124,76.955925,134.93228446691077
107934.0,-66.76932,11.155738,-78.279205,103.49022426789435
107951.75300601202,78.34381,4.9533195,62.631977,100.4243619960501
107969.83533734136,-78.40124,16.45603,22.955168,83.33363723495287
107987.91766867068,8.289034,78.22417,59.899277,98.87189814080027
108006.0,36.458347,-78.40124,15.441436,87.83167677581993
108024.75300601202,-78.40124,78.36774,-33.48157,115.79841378840256
108042.83533734136,78.34381,-78.40124,71.904495,132.11647664110154
108060.91766867068,-70.68651,4.3287706,-78.36774,105.6258662619868
108079.0,78.34381,5.9439836,70.77265,105.74427405006699
108096.75300601202,-78.40124,18.427786,25.85298,84.58554430444836
108114.83533734136,8.0617075,78.36774,55.12303,96.1511426708183
108132.91766867068,56.774136,-78.40124,-9.313198,97.2460416113237
108151.0,-78.40124,77.736015,-57.70019,124.57509537485382
108168.75300601202,78.34381,-77.81976,78.15238,135.28289659612594
108186.83533734136,-71.327805,-4.6661706,-73.06745,102.21683405236551
108204.91766867068,65.02967,39.38009,73.567566,105.79147525146512
108223.0,-73.75421,-2.060294,13.747257,75.05275064322815
108240.75300601202,-68.00166,78.36774,8.578575,104.11205686419716
108258.83533734136,78.34381,-78.40124,62.079216,127.03675081655842
108276.91766867068,-65.93897,6.8963614,-78.36774,102.64994027240303
108295.0,78.34381,-9.368236,70.184,105.59976452183876
108313.75300601202,-78.40124,37.22408,7.2289753,87.08986536487475
108331.83533734136,-27.520836,78.36774,31.229843,88.7367014298545
108349.91766867068,75.37182,-78.40124,23.766363,111.3216317428817
108368.0,-78.17631,61.734634,-67.55658,120.36025914572656
108385.75300601202,78.34381,-77.98966,78.40124,135.52451463026645
108403.83533734136,-58.145275,-6.4297442,-76.78124,96.52757860446235
108421.91766867068,66.83632,32.983845,77.97052,107.86301354587134
108440.0,-78.40124,18.619217,18.92551,82.7744199858313
108457.75300601202,-54.780846,78.36774,28.387068,99.74101157908886
108475.83533734136,75.83844,-78.40124,34.182693,114.30957928320554
108493.91766867068,-78.40124,74.125114,-63.632214,125.26110975714846
108512.0,78.34381,-78.40124,78.40124,135.7617819284621
108529.75300601202,-49.506874,-13.936296,-77.77908,93.24556935907407
108547.83533734136,73.41442,15.704656,77.57808,107.95680516068053
108565.91766867068,-78.40124,20.806335,1.4764243,81.12852666222564
108584.0,-25.563437,78.36774,54.22569,98.66821899647661
108602.75300601202,15.80755,-77.02053,33.69693,85.54252609029207
108620.83533734136,-78.40124,78.36774,-14.723563,111.8259380182441
108638.91766867068,78.34381,-78.40124,38.542572,117.34580033059933
108657.0,-74.369194,36.412884,-78.36774,114.0095513986205
108674.75300601202,78.34381,-48.556892,70.14092,115.82431948628994
108692.83533734136,-78.40124,-45.36236,-8.233996,90.95216780503485
108710.91766867068,71.435486,44.898136,75.02724,112.9068554975662
108729.0,20.72737,-67.50872,-10.217717,71.35441740948761
108746.75300601202,-78.40124,78.36774,3.4146798,110.90499152148982
108764.83533734136,78.34381,-78.40124,51.579132,122.24939205054201
108782.91766867068,-78.40124,-11.4046,-77.09711,110.54765354836664
108801.0,78.34381,-33.725647,71.15552,111.07780992329255
108819.75300601202,-71.75135,-45.90794,9.669742,85.72805312272445
108837.83533734136,-26.755106,77.960945,47.827053,95.29518162545821
108855.91766867068,78.34381,-68.74825,-5.1926107,104.36013438694087
108874.0,-78.40124,61.84471,-66.5731,120.01458341439886
108892.75300601202,78.34381,-48.564068,78.40124,121.00816377237663
108910.83533734136,-77.10907,-32.076935,-27.863022,88.04025460112896
108928.91766867068,2.8236315,68.37257,50.339607,84.95208800357494
108947.0,78.34381,-74.72095,14.108586,109.1788676124551
108964.75300601202,-78.40124,18.262674,-66.56592,104.4571749599532
108982.83533734136,78.34381,3.5630403,61.0718,99.39925843151711
109000.91766867068,52.80909,-72.617584,-26.384205,93.5854677079042
109019.0,-78.40124,68.06388,-37.64523,110.43826119576902
109036.75300601202,78.34381,1.4166015,56.367344,96.52479885884372
109054.83533734136,-15.297861,-46.72871,-47.59255,68.42987436012082
109072.91766867068,-78.40124,73.00523,-27.298296,110.55186568029558
109091.0,78.34621,-14.369413,54.228085,96.36022962870052
109109.75300601202,1.3831009,-48.31521,-52.6033,71.43794269387718
109127.83533734136,-78.40124,53.90265,-40.58851,103.43924426725188
109145.91766867068,78.34381,17.398834,59.77245,100.06606702013504
109164.0,62.021786,-76.44863,-24.859922,101.53379087452994
109181.75300601202,-78.40124,38.547356,4.36945,87.47425439196859
109199.83533734136,64.07969,33.610786,52.493225,89.3948000553417
109217.91766867068,78.34621,-78.40124,19.219837,112.49126716864856
109236.0,-78.40124,32.380833,6.4153867,85.06720852256777
109253.75300601202,-49.47816,55.824154,24.824028,78.61715368128064
109271.83533734136,78.34621,-33.72804,42.454975,95.27924331068296
109289.91766867068,-1.3735292,-28.147778,-67.42019,73.07301833396947
109308.0,-78.40124,10.710656,-5.697514,79.33431950466414
109325.75300601202,-15.194966,71.13398,57.850945,92.93902269646793
109343.83533734136,78.34621,-76.30027,44.49134,118.06497854331148
109361.91766867068,-59.841846,20.607725,-51.16277,81.38399041848612
109380.0,-78.40124,-0.75855184,-27.877378,83.213448664182
109398.75300601202,1.4477094,74.22322,63.167988,97.4750068358212
109416.83533734136,78.34381,-78.315094,38.21474,117.18094071483014
109434.91766867068,-50.89237,17.439514,-49.585842,73.16369112901603
109453.0,-78.40124,-18.96619,-14.759458,82.00190483828692
109470.75300601202,-59.061756,78.36774,57.460903,113.71696912988203
109488.83533734136,78.34381,-44.922062,55.867226,106.19270766198129
109506.91766867068,60.782257,-58.642998,-44.084545,95.27292946214615
109525.0,-78.40124,11.433315,3.381179,79.302632345067
109542.75300601202,-78.40124,50.73683,-0.37329367,93.3869353825821
109560.83533734136,50.916298,54.278336,67.89159,100.73666241087103
109578.91766867068,78.34621,-78.40124,17.73384,112.24692484004763
109597.0,-57.70498,19.478271,-27.037468,66.63551931065642
109614.75300601202,-67.29575,-44.35973,-28.750792,85.57518129903472
109632.83533734136,-78.40124,78.36774,38.159706,117.23659952528321
109650.91766867068,78.34381,-21.53378,51.55999,96.22831607798508
109669.0,78.34621,-76.29309,-15.273932,110.41764895999563
109687.75300601202,-75.69726,1.6989647,1.8568966,75.73908975913652
109705.83533734136,-75.90065,12.141616,-48.396564,90.8325652864657
109723.91766867068,-39.758167,78.36774,55.034492,103.687076463779
109742.0,78.34381,-78.40124,34.249695,116.00667483574695
109759.75300601202,-25.118357,-14.359841,1.5984626,28.97743906228307
109777.83533734136,-73.55082,-25.800335,-67.42258,103.05913206815312
109795.91766867068,-28.67661,71.65085,55.46761,95.04129642385304
109814.0,78.34621,-74.56062,28.844114,111.93479168066332
109831.75300601202,70.15767,-31.940536,-11.4213505,77.92781112696574
109849.83533734136,-78.40124,30.241573,-58.781788,102.55050351670086
109867.91766867068,50.34918,26.496672,45.97255,73.1477197679496
109886.0,67.8868,13.35482,16.747963,71.18611589433552
109903.75300601202,78.33663,-56.391273,-7.2840123,96.79700463084578
109921.83533734136,-78.40124,48.88472,-31.418882,97.58901797408315
109939.91766867068,20.753693,14.412485,35.896015,43.89714557797237
109958.0,65.4245,6.3938503,35.541862,74.72931470538087
109976.75300601202,78.34621,-30.980982,15.417507,85.6484056427408
109994.83533734136,12.63934,-55.682972,-70.49029,90.71508843997499
110012.91766867068,-78.40124,62.876053,44.819168,110.04049388569933
110031.0,-27.365297,21.3926,4.948534,35.08547852612766
110049.75300601202,-0.07418015,31.181986,51.308735,60.040886410004596
110067.83533734136,78.34621,-10.492902,31.10302,84.9448495605596
110085.91766867068,78.34621,-78.40124,-9.308413,111.22737795830787
110104.0,-56.697563,5.9248405,-35.48922,67.15059285887065
110121.75300601202,-78.40124,-20.263145,4.1493025,81.08369867035624
110139.83533734136,-78.40124,49.018723,0.40440148,92.46487537787176
110157.91766867068,-56.12566,78.36774,54.500874,110.73363377902432
110176.0,77.683365,-43.48632,53.316383,103.77091076534074
110194.75300601202,78.34621,-77.810196,-23.153778,112.82133068970514
110212.83533734136,-32.82352,7.5328746,-5.647263,34.14702394530004
110230.91766867068,-48.23385,-28.399033,7.2241898,56.43756089187424
110249.0,-47.00868,-45.860085,-41.44756,77.65863520242436
110266.75300601202,-78.40124,78.36774,48.571247,121.02653899612353
110284.83533734136,61.485775,37.075718,68.60946,99.30945269236837
110302.91766867068,78.34621,-78.40124,34.23773,116.00476374035077
110321.0,27.420334,-31.191557,-59.743736,72.7605795468501
110338.75300601202,-78.40124,36.905823,-4.917426,86.79271445985778
110356.83533734136,-73.70157,33.701717,-9.767851,81.62804703269086
110374.91766867068,23.883615,55.273785,65.98683,89.330174673194
110393.0,78.34621,-78.274414,30.133892,114.77396898023157
110410.75300601202,-50.188854,-23.330854,-59.93517,81.58109105136761
110428.83533734136,-78.40124,48.080704,22.902523,94.77886943005147
110446.91766867068,40.236748,-4.974856,28.679003,49.66115478832776
110465.0,24.804886,49.41355,20.799156,59.072719451434025
110483.75300601202,78.34621,-45.69258,4.213911,90.79481006278068
110501.83533734136,51.208233,-78.40124,-32.981453,99.28148771302281
110519.91766867068,-78.40124,50.880405,11.586461,94.17970123655174
110538.0,-59.542732,62.486008,35.716545,93.41043687156652
110555.75300601202,69.08326,-55.01535,36.16163,95.42981207205115
110573.83533734136,65.08471,-10.701085,0.057429794,65.95859302731195
110591.91766867068,22.73502,34.309517,15.240432,43.88957574094688
110610.0,65.30246,-44.637306,0.83033913,79.10492925260755
110627.75300601202,47.300613,-72.51229,-51.335056,100.65122038874145
110645.83533734136,-74.14186,12.6082325,-12.392871,76.22051024925179
110663.91766867068,-78.40124,78.36774,41.65814,118.42152563830953
110682.0,-63.558033,77.5374,46.446346,110.49404967843655
110699.75300601202,58.623856,-5.1423593,54.062973,79.91248588973917
110717.83533734136,78.34621,-58.592747,33.69693,103.47328985682735
110735.91766867068,78.34621,-55.051243,-19.980783,97.81615238038265
110754.0,39.853886,-13.713757,-21.528994,47.32754951408409
110772.75300601202,-57.93709,31.930965,-2.8762755,66.21605458082824
110790.83533734136,-55.09671,-7.37255,6.707321,55.99098232147424
110808.91766867068,-65.87197,-18.68622,-6.637927,68.79210219514032
110827.0,-77.87002,44.601414,16.252632,91.19854271054565
110844.75300601202,-44.58945,59.22926,50.55736,89.73500399297757
110862.83533734136,61.22016,15.087286,38.671787,73.96648767546533
110880.91766867068,78.34621,-53.771038,15.786015,96.32575677637715
110899.0,78.34621,-71.92125,-9.885103,106.81062720650604
110916.75300601202,29.39927,-33.263817,-41.263306,60.60906714339056
110934.83533734136,-73.90018,-6.535032,-25.147072,78.33465693705826
110952.91766867068,-78.40124,56.877033,39.38966,104.56240543970041
110971.0,-44.338196,58.6765,35.082424,81.48364099928398
110988.75300601202,78.34621,-52.352043,53.835648,108.52254154422414
111006.83533734136,63.060307,27.726625,-4.4125223,69.02780893142177
111024.91766867068,78.34621,-53.73275,-3.3787863,95.06183903537564
111043.0,-30.602901,-59.30105,-55.173283,86.58662274113935
111061.75300601202,-78.40124,78.36774,69.51877,130.84768430720547
111079.83533734136,62.471653,-33.74718,40.107533,81.54872034465592
111097.91766867068,54.847847,-9.267733,22.507694,60.00644535958062
111116.0,62.754013,43.603573,-31.449991,82.6343733555872
111134.75300601202,78.34621,-78.40124,-19.7726,112.5870275194336
111152.83533734136,-78.31031,42.900055,-12.840344,90.20972123522753
111170.91766867068,-78.37731,74.52952,49.06658,118.76523627376362
111189.0,37.032646,-5.9942346,28.868044,47.33615618728552
111206.75300601202,39.073795,24.902994,38.186028,60.04242916707189
111224.83533734136,78.34621,-0.6819788,-1.4357449,78.36233202161371
111242.91766867068,78.34621,-78.40124,-15.637654,111.93488856261669
111261.0,-54.82631,5.6400843,-35.606472,65.61673313579388
111278.75300601202,-78.40124,35.647152,38.45164,94.31862222243444
111296.83533734136,-43.92901,28.466034,3.543897,52.46553361222837
111314.91766867068,-13.797508,24.625418,45.37911,53.44198782864357
111333.0,66.5396,34.137226,22.270796,78.03112790168223
111351.75300601202,78.34621,-55.704506,10.555118,96.70848528470529
111369.83533734136,69.43501,-71.31584,-37.130756,106.23494100218268
111387.91766867068,-72.96695,19.19591,-14.96764,76.92001690197553
111406.0,-78.40124,8.834617,22.55316,82.05760121439019
111423.75300601202,-76.27395,46.683243,13.838187,90.49053014015621
111441.83533734136,-39.710308,67.13543,41.65335,88.42553980023115
111459.91766867068,73.74225,-2.895419,34.87903,81.62628020428814
111478.0,78.34621,-78.40124,2.4479449,110.86422096030412
111495.75300601202,52.80909,-34.481804,-39.41598,74.37347829087271
111513.83533734136,-77.26461,40.677044,25.305002,90.91086290015095
111531.91766867068,-60.681755,-20.981018,22.81638,68.140044779122
111550.0,-9.911426,-52.86652,-14.83603,55.79617449632884
111568.75300601202,-77.065994,59.049793,19.198301,98.96777377428214
111586.83533734136,-56.185482,78.36774,47.975414,107.70307056324495
111604.91766867068,76.644844,4.0248713,39.229336,86.19496797242167
111623.0,78.34621,-78.40124,8.210068,111.14084879766901
111640.75300601202,69.49245,-64.735344,-42.86895,104.19986681327063
111658.83533734136,-73.47185,31.947716,-17.216974,81.94628419736817
111676.91766867068,-78.40124,23.495964,33.969723,88.61578210749835
111695.0,-31.727568,25.166214,16.848465,43.86168796506406
111712.75300601202,23.83815,17.65009,57.28383,64.50752089407483
111730.83533734136,78.09734,17.425158,0.75376606,80.02123974091985
111748.91766867068,78.34621,-77.688156,10.205753,110.80494392553722
111767.0,-7.2002606,-48.789,-54.132366,73.22925182238221
111784.75300601202,-78.40124,53.45039,43.30685,104.3033167335162
111802.83533734136,-48.9589,58.678894,9.052371,76.95538909650757
111820.91766867068,69.08565,-42.40951,41.6366,91.13177291111262
111839.0,35.745262,28.547394,6.7767158,46.245014181788825
111857.75300601202,62.55301,15.30504,-18.70297,67.05911121005556
111875.83533734136,78.34621,-75.84801,4.6972785,109.14721099336786
111893.91766867068,-17.50891,-51.58392,-50.751186,74.45230427838412
111912.0,-78.40124,59.80595,53.64182,112.2539573549748
111929.75300601202,-71.92364,68.272064,64.83106,118.47848350815981
111947.83533734136,28.530643,0.0,18.245924,33.866079380513256
111965.91766867068,77.45604,-60.11703,29.856314,102.4933896120579
111984.0,68.9014,-20.337326,0.4977249,71.84189224168831
112001.75300601202,28.612001,34.89099,3.8358316,45.28511221657356
112019.83533734136,39.442303,3.0437791,12.081793,41.36338452361285
112037.91766867068,71.354126,-57.92752,-18.655111,93.78177881122002
112056.0,25.127928,-60.30607,-49.447052,81.93439934428511
112073.75300601202,-75.80254,16.676176,4.716422,77.758372879817
112091.83533734136,-78.40124,73.282814,60.796616,123.34242489244183
112109.91766867068,-73.57953,77.74558,38.564106,113.77834906578904
112128.0,21.639069,29.293982,42.086468,55.656603178042666
112146.75300601202,77.59244,-32.76609,31.603138,89.96089000498351
112164.83533734136,78.34621,-62.05768,6.200025,100.1385269431657
112182.91766867068,78.34621,-55.194817,-26.180807,99.34803017774857
112201.0,9.684099,-2.866704,-6.5781045,12.052851284170782
112218.75300601202,-65.43168,17.674019,2.7901309,67.8340661148504
112236.83533734136,-42.651196,-27.700304,1.7922882,50.88854152866528
112254.91766867068,-65.149315,-6.324456,-4.560883,65.61427925691824
112273.0,-78.40124,66.41038,30.035782,107.0478454039759
112291.75300601202,-38.09031,76.867386,37.61173,93.67021394211713
112309.83533734136,78.04709,-2.1249025,20.076498,80.61593663815245
112327.91766867068,78.34621,-77.185646,17.853487,111.42037321720201
112346.0,68.33189,-63.96722,-25.403112,96.98644505695135
112363.75300601202,-65.24264,19.676884,-15.5754385,69.90261885356183
112381.83533734136,-78.40124,23.134636,26.89868,86.05524273472533
112399.91766867068,-57.891624,24.110943,-3.1993182,62.793417956434546
112418.0,-23.381105,17.092543,45.39586,53.84807519649587
112436.75300601202,29.908958,15.754907,34.92928,48.60882085118721
112454.83533734136,78.34621,-8.248354,-14.089443,80.02922197000083
112472.91766867068,78.34621,-59.559483,10.095679,98.93120524416162
112491.0,45.606434,-64.22326,-26.463171,83.09556767120131
112508.75300601202,-78.40124,34.548805,2.0650797,85.70086880909071
112526.83533734136,-78.40124,52.11754,26.053984,97.68215032165014
112544.91766867068,-9.183981,29.057083,12.445515,32.917327095201316
112563.0,60.327606,-28.726862,60.892334,90.40204082887641
112580.75300601202,66.04665,22.713484,-1.5984626,69.86141577669575
112598.83533734136,78.34621,-21.983646,-14.575203,82.66707842490035
112616.91766867068,75.80972,-77.32683,3.3500714,108.34101376077481
112635.0,-62.378326,-11.246668,-39.894566,74.89405511783198
112653.75300601202,-78.40124,60.310856,49.844276,110.76373790620517
112671.83533734136,-42.15347,47.310184,22.584267,67.26973806312942
112689.91766867068,59.98303,-37.535156,29.925709,76.82707779863762
112708.0,42.486084,-6.4417086,38.372673,57.610979652383094
112725.75300601202,70.49029,21.531387,-13.63479,74.95591443489946
112743.83533734136,78.34621,-43.20874,3.4984317,89.53972782017635
112761.91766867068,53.687286,-73.263664,-21.356705,93.30593758817129
112780.0,-71.76331,3.0629225,-16.963326,73.8045295722382
112797.75300601202,-78.40124,56.903355,48.80336,108.47356448039875
112815.83533734136,-66.8076,61.002407,29.583523,95.18263450149495
112833.91766867068,7.552018,20.55508,22.029112,31.06164942798866
112852.0,62.844944,-25.087248,27.111649,72.89649175423905
112869.75300601202,78.0447,-28.499535,13.484037,84.17254865526881
112887.83533734136,72.39265,-17.23851,0.45704544,74.418216127349
112905.91766867068,53.74711,-17.061434,2.443159,56.44301010211748
112924.0,19.88028,-18.781935,-3.2687125,27.543984763107193
112942.75300601202,-13.18253,-17.645304,-6.015771,22.83255025567133
112960.83533734136,-39.262836,-25.759655,0.5168682,46.961657436871754
112978.91766867068,-59.052185,-15.15668,-3.4146798,61.061817365954255
112997.0,-77.01096,38.77229,11.0672,86.92790891195818
113014.75300601202,-78.40124,72.868835,30.77519,111.37205155392859
113032.83533734136,-41.375774,75.32157,22.715876,88.8892828400103
113050.91766867068,58.535316,26.305239,15.843445,66.1011616201637
113069.0,78.348595,-39.329838,16.855644,89.2717829453126
113086.75300601202,78.34621,-76.30984,9.160052,109.7507487666139
113104.83533734136,70.63625,-56.934464,-21.60796,93.26262349082508
113122.91766867068,-22.969524,-0.31825677,-18.643147,29.58491592385951
113141.0,-78.05427,15.838658,10.009535,80.27155749946607
113158.75300601202,-76.608955,2.711165,11.61039,77.53117797248633
113176.83533734136,-64.24001,21.782642,3.5534685,67.92561752152686
113194.91766867068,-66.24527,43.86679,36.556458,87.4591658077229
113213.0,-15.733371,38.564106,28.566536,50.50520976733166
113231.75300601202,72.83055,-2.3067634,7.4778376,73.24976604643903
113249.83533734136,78.348595,-41.375774,13.697006,89.65525632073748
113267.91766867068,78.348595,-55.68058,8.0641,96.45651370654252
113286.0,39.61938,-34.93885,-24.757027,58.33805701928741
113303.75300601202,-65.34793,4.455595,-10.504867,66.33669054736312
113321.83533734136,-78.40124,18.286604,25.106392,84.32962254539078
113339.91766867068,-75.68768,30.023817,19.873102,83.81524129974389
113358.0,-49.5667,33.83811,24.266481,64.73590609071184
113376.75300601202,-6.537425,22.261225,31.430847,39.06658683924997
113394.83533734136,68.33189,-6.692964,12.928883,69.8655778885789
113412.91766867068,78.348595,-23.88601,4.0559793,82.00911400738428
113431.0,78.348595,-39.289158,5.5563326,87.82376162966838
113448.75300601202,60.064384,-37.83427,-11.318456,71.88372317817358
113466.83533734136,-19.853958,-18.726898,-18.825008,33.155049135361445
113484.91766867068,-78.40124,17.054256,-2.759023,80.28209195808031
113503.0,-78.40124,39.78449,17.14758,89.57454760116904
113521.75300601202,-75.42686,44.462624,20.61969,89.95169680512467
113539.83533734136,-12.49098,34.957993,36.429634,52.011576493338524
113557.91766867068,75.88151,-8.829831,28.04967,81.38030144007554
113576.0,78.348595,-43.093884,27.630909,93.58980878731275
113593.75300601202,78.09255,-56.66885,16.226309,97.84220985642382
113611.83533734136,-28.181278,-44.558342,-23.735256,57.818618531471195
113629.91766867068,-78.40124,47.04218,-3.8980472,91.51456662555654
113648.0,-60.138565,51.679638,3.5175748,79.37131293196468
113665.75300601202,56.345806,-10.418722,56.843533,80.71299068814766
113683.83533734136,78.348595,-0.42354473,-2.2182257,78.381134553338
113701.91766867068,78.348595,-74.531906,20.868551,110.1317564161512
113720.0,-64.19933,-16.307669,-44.740204,79.93234573452776
113737.75300601202,-78.40124,63.682465,23.407427,103.68277784074921
113755.83533734136,-12.739842,32.988632,-0.82076746,35.372688258595545
113773.91766867068,55.728436,-7.1236873,35.02739,66.20667300179323
113792.0,78.348595,-6.9155045,-5.510867,78.84602841015668
113810.75300601202,68.903786,-70.363464,2.3809435,98.51100285330203
113828.83533734136,-62.952625,-18.047314,-31.351881,72.60632878229956
113846.91766867068,-78.40124,52.445366,46.12809,105.00034064449342
113865.0,-38.678967,56.460667,22.100899,71.91883719082351
113882.75300601202,49.9711,-11.854466,30.164999,59.561450318349
113900.83533734136,73.72071,-19.334698,13.41225,77.3851541299609
113918.91766867068,63.37378,-9.758279,5.0873227,64.32216455300751
113937.0,34.883816,-22.653662,2.005257,41.642407187483165
113954.75300601202,21.40217,-35.963017,-18.533073,45.7697090582245
113972.83533734136,-32.184612,-34.096546,-20.782406,51.286763378765635
113990.91766867068,-78.12127,10.509652,14.501023,80.14777151999007
114009.0,-78.40124,57.247932,28.920687,101.29405850476223
114027.75300601202,-68.06627,69.63123,31.505028,102.34301193685177
114045.83533734136,0.30868515,42.59137,33.25185,54.035225671974665
114063.91766867068,69.99256,-9.2485895,25.130322,74.94016244255675
114082.0,78.348595,-41.61267,15.345719,90.03114869104962
114099.75300601202,78.348595,-50.17689,-2.6441634,93.07638921140004
114117.83533734136,64.83345,-34.64213,-12.572339,74.57557990234015
114135.91766867068,-1.9143264,-4.4220943,-7.697985,9.081769465476123
114154.0,-54.228085,8.944691,2.2804415,55.008118612506905
114171.75300601202,-62.64394,-0.14118157,9.887496,63.41960050417634
114189.83533734136,-54.665985,-20.614902,9.58599,59.20502769841366
114207.91766867068,-53.83804,-3.2687125,8.193317,54.55592979605191
114226.0,-67.130646,39.176693,30.598116,83.53191970464357
114243.75300601202,-59.21969,62.430973,33.321243,92.27623371425535
114261.83533734136,-6.427351,53.88111,25.893658,60.12459047952231
114279.91766867068,67.19047,17.834345,17.219366,71.61794248539874
114298.0,78.348595,-39.01876,9.521381,88.04329995268684
114316.75300601202,78.348595,-73.921715,10.815945,108.2585190793698
114334.83533734136,78.348595,-76.80756,0.8614469,109.72076240342639
114352.91766867068,37.11161,-40.808655,-8.298605,55.78068451217814
114371.0,-45.029743,9.136123,-2.4288018,46.011363556200564
114388.75300601202,-78.40124,28.399033,4.625491,83.51439801533488
114406.83533734136,-78.40124,24.249731,5.9679127,82.28256114818488
114424.91766867068,-73.0148,14.264125,3.4194658,74.47361296065199
114443.0,-44.44827,12.26844,4.840853,46.36374859514822
114460.75300601202,-28.85847,16.180845,17.829557,37.583562078003915
114478.83533734136,-33.37389,28.013775,41.10059,59.898636226802566
114496.91766867068,-19.808493,35.525112,36.09702,54.382026722291194
114515.0,11.246668,39.20062,3.5797906,40.93886967450948
114533.75300601202,70.710434,14.285662,-3.1849606,72.20934558123453
114551.83533734136,78.348595,-31.636639,4.7762446,84.62973341662713
114569.91766867068,78.348595,-72.48597,4.2976627,106.8231627035911
114588.0,78.348595,-78.40124,-15.302648,111.89024893985861
114606.75300601202,35.936695,-59.750916,-34.680416,77.87393186615876
114624.83533734136,-58.561638,-0.3326142,-6.537425,58.926343880133196
114642.91766867068,-78.40124,30.282251,39.255657,92.76193058397529
114661.0,-78.40124,34.84074,52.739693,100.70802755996887
114678.75300601202,-76.06337,37.346115,25.051355,88.3625426789324
114696.83533734136,-44.677986,37.7218,2.9935281,58.54927701297161
114714.91766867068,-7.741058,26.455992,8.906404,28.968388354802272
114733.0,20.196144,2.0890088,22.096113,30.008105570728425
114750.75300601202,26.427277,-1.2969562,31.146091,40.86761614774868
114768.83533734136,30.916372,10.066964,30.071676,44.28850324032926
114786.91766867068,28.24828,27.037468,17.4778,42.83063730146242
114805.0,51.342236,10.339756,7.683628,52.933674450784316
114822.75300601202,70.70565,-15.5347595,7.7889156,72.80992309341677
114840.83533734136,70.48311,-39.143192,5.003571,80.77805393776829
114858.91766867068,69.853775,-53.833252,0.78008807,88.19397621177473
114877.0,54.38841,-53.120167,-9.250982,76.58610809017725
114895.75300601202,37.532764,-47.925163,-20.976233,64.38580567894257
114913.83533734136,-2.3737648,-39.621773,-20.523973,44.685043612980586
114931.91766867068,-43.426495,-25.003496,-10.784837,51.257662737620116
114950.0,-71.94278,0.9021264,7.4515157,72.33327389519518
114967.75300601202,-78.40124,19.17198,24.297588,84.28933522857885
114985.83533734136,-78.40124,39.34898,29.920923,92.68418578026096
115003.91766867068,-78.40124,57.21204,33.871613,102.79716981376953
115022.0,-77.613976,66.5037,32.27315,107.18314977243892
115039.75300601202,-64.54391,69.432625,24.52013,97.91855037578745
115057.83533734136,-32.423904,59.37762,23.988903,71.78076883545499
115075.91766867068,12.584304,32.84027,23.699362,42.40881747991047
115094.0,60.729614,-2.8547394,21.651031,64.53683209605093
115111.75300601202,78.07341,-28.367926,20.162643,85.47940539869838
115129.83533734136,78.348595,-52.28983,11.043271,94.84029994829395
115147.91766867068,78.348595,-58.96365,-5.6687994,98.22092265110304
115166.0,76.95353,-47.0015,-14.678099,91.35881660772922
115184.75300601202,44.4028,-24.99871,-11.378278,52.2111995624443
115202.83533734136,-28.664646,8.138281,3.280677,29.97759812791222
115220.91766867068,-70.10264,17.633339,12.861881,73.42167773972945
115239.0,-70.63865,3.2902486,15.896089,72.4798610316564
115256.75300601202,-41.516956,-24.297588,2.6345918,48.17646201285756
115274.83533734136,-44.90292,-5.790838,4.7283864,45.52102445262353
115292.91766867068,-62.581726,32.586624,31.804142,77.394211290074
115311.0,-61.81121,61.880604,39.640915,96.02727203823996
115328.75300601202,-22.720663,66.85067,21.751535,73.88078154340745
115346.83533734136,57.405865,38.40857,6.3124914,69.35776188371564
115364.91766867068,78.348595,-35.04414,6.9035397,86.10605639095952
115383.0,78.348595,-78.40124,18.566574,112.3831590680254
115401.75300601202,74.905205,-78.05427,-5.960734,108.34569281306794
115419.83533734136,-17.779306,-24.189907,-19.90421,36.01989586651223
115437.91766867068,-78.40124,31.974037,19.442379,86.87404432161892
115456.0,-78.40124,37.69309,35.60408,93.99560617354463
115473.75300601202,-68.28881,30.322931,8.846581,75.2403064257212
115491.83533734136,7.1021514,11.806608,-11.962148,18.24635667052713
115509.91766867068,44.85506,-23.227959,8.25314,51.18230950991642
115528.0,25.998947,-12.086578,29.954424,41.46442004937087
115545.75300601202,8.2028885,25.355253,35.161392,44.11915368425719
115563.83533734136,-4.175625,53.18238,14.6398115,55.31840080263128
115581.91766867068,23.012598,43.737576,8.214853,50.10028972847351
115600.0,55.343178,8.698221,8.377571,56.64547727369385
115617.75300601202,76.5587,-42.222862,8.542682,87.84635471614156
115635.83533734136,78.348595,-70.36107,7.3390493,105.56061838889897
115653.91766867068,78.348595,-78.40124,-12.086578,111.49592880352945
115672.0,54.50566,-73.222984,-32.380833,96.85551457544244
115690.75300601202,-34.366947,-29.444735,-23.357176,50.92776390158918
115708.83533734136,-78.40124,19.023619,17.001612,82.44820995020635
115726.91766867068,-78.40124,31.363846,43.10106,94.80583654276205
115745.0,-77.35793,39.29873,23.816614,89.97705605276711
115763.75300601202,-46.09459,44.58945,5.534796,64.37052310904592
115781.83533734136,-13.290212,41.031197,15.096857,45.695776101694584
115799.91766867068,7.1906886,48.154884,28.303316,56.317639795995376
115818.0,51.70596,28.226744,22.347368,63.00523972568123
115835.75300601202,78.348595,-30.351646,12.967169,85.01689376387438
115853.83533734136,78.348595,-76.18541,-2.3043704,109.30704075347809
115871.91766867068,58.078274,-61.674812,-21.1557,87.31799349815833
115890.0,-56.08498,-2.1942968,6.152167,56.46405120820484
115907.75300601202,-78.40124,9.837245,25.4749,83.021059694138
115925.83533734136,-61.674812,-3.493646,6.0373073,62.068003649572084
115943.91766867068,-48.733967,17.207401,-6.86286,52.13629288807836
115962.0,-41.983574,51.248913,8.61447,66.80778893868548
115980.75300601202,-31.849607,61.198624,21.095879,72.14364252191919
115998.83533734136,3.9243693,47.26472,35.331287,59.14096948949646
116016.91766867068,52.337685,13.053313,29.837172,61.64315926680573
116035.0,78.348595,-36.68089,7.958812,86.87538614658048
116052.75300601202,78.348595,-68.48742,-7.7817373,104.35317183553472
116070.83533734136,70.29167,-56.508526,-12.06265,90.99252665523733
116088.91766867068,5.915269,-25.027426,-3.1371026,25.90760259558502
116107.0,-36.86275,-18.298569,2.9313123,41.25884822447655
116124.75300601202,-38.702896,-35.362396,0.5527618,52.42822479595482
116142.83533734136,-66.690346,-22.450264,-3.0270288,70.43280135437921
116160.91766867068,-78.37971,36.12334,8.131102,86.68557810947622
116179.0,-78.40124,74.790344,31.304024,112.78427154425619
116196.75300601202,-37.946735,62.541046,29.9281,79.0381445983162
116214.83533734136,35.130283,18.152601,24.240158,46.38145067362872
116232.91766867068,78.348595,-33.101097,16.683355,86.6747904245142
116251.0,78.348595,-55.773903,-8.300998,96.53049861118214
116269.75300601202,78.14999,-39.253265,-17.965954,89.28054241149323
116287.83533734136,28.00181,-12.3665495,5.3649,31.0775652492606
116305.91766867068,-35.130283,-8.528324,17.492159,40.16023805196311
116324.0,-18.212423,-36.159233,4.580026,40.74505026184032
116341.75300601202,-19.69124,-50.050064,-11.191631,54.936385425161134
116359.83533734136,-72.80423,17.087757,-0.1483603,74.78281457636217
116377.91766867068,-78.40124,76.62092,35.66869,115.2812875600377
116396.0,-52.576977,72.42615,34.692383,95.98670299838264
116413.75300601202,46.04673,17.769735,25.912802,55.74529695996182
116431.83533734136,78.348595,-30.210464,14.266518,85.174573726046
116449.91766867068,78.348595,-45.895977,-10.899696,91.45352052354775
116468.0,55.840904,-16.15213,-5.77648,58.41631265549476
116486.75300601202,-12.92649,-8.571397,1.3400285,15.567872900063168
116504.83533734136,0.019143265,-41.375774,-19.052334,45.551580339338685
116522.91766867068,-58.566425,-23.275818,-7.741058,63.495777968374504
116541.0,-78.40124,49.29869,42.983807,102.1015324736458
116558.75300601202,-72.139,74.99135,36.479885,110.26567872840454
116576.83533734136,7.3581924,38.095097,26.771856,47.13927963513616
116594.91766867068,70.39217,-5.62812,27.080542,75.63127056355104
116613.0,78.348595,-34.87185,1.536247,85.7724216502107
116630.75300601202,78.348595,-38.97808,-8.059315,87.87915348494005
116648.83533734136,39.394447,-31.66296,-3.773616,50.68239998375043
116666.91766867068,-14.742706,-22.103292,-8.545074,27.909159555693826
116685.0,-70.70565,-10.54076,10.102858,72.19739817381416
116702.75300601202,-78.40124,16.345955,24.170765,83.65506893837845
116720.83533734136,-64.912415,46.67128,8.48286,80.39769220413123
116738.91766867068,-2.6106627,31.481098,22.885773,39.008123472250034
116757.0,43.584427,24.283232,27.736198,57.083923417888485
116775.75300601202,77.63312,20.294254,13.244746,81.3276174675948
116793.83533734136,78.348595,-57.427402,11.938218,97.872007683296
116811.91766867068,73.385704,-78.40124,-28.087955,111.00067207542142
116830.0,-74.71616,23.120277,-8.169388,78.63708205418658
116848.75300601202,-78.40124,51.976357,56.08259,109.51508125202277
116866.83533734136,-3.7042217,18.614431,-7.958812,20.580597374902794
116884.91766867068,16.891539,3.3333209,27.724234,32.6353836946596
116903.0,-0.9021264,64.843025,27.204971,70.32454884535728
116920.75300601202,76.527596,3.3763933,1.2467052,76.61218737975837
116938.83533734136,78.35099,-78.40124,8.513967,111.16708011634915
116956.91766867068,55.778687,-70.4185,-50.377895,102.99494827575279
116975.0,-78.31749,46.173553,5.266791,91.06791599669772
116992.75300601202,-78.40124,49.56909,65.324,113.4507562467774
117010.83533734136,-36.11377,21.373455,-2.4120514,42.03387864813533
117028.91766867068,27.22651,-15.034641,0.31107804,31.103376767257142
117047.0,-8.552254,38.958935,48.568855,62.848017795518146
117065.75300601202,6.0803795,63.45753,22.041077,67.45100595161534
117083.83533734136,78.35099,-15.994198,2.7255223,80.01325187399335
117101.91766867068,78.348595,-77.57808,10.653227,110.77162127762668
117120.0,72.99327,-76.62331,-32.498085,110.70354388779171
117137.75300601202,-59.691093,7.7697725,-11.801823,61.34067960464519
117155.83533734136,-78.40124,42.880913,52.68705,103.73742030219216
117173.91766867068,-76.460594,29.349018,28.387068,86.67994532781954
117192.0,-2.988742,7.255297,-9.1480875,12.052361519985585
117209.75300601202,9.775029,5.391222,14.422057,18.23765869609841
117227.83533734136,-14.725956,46.374557,43.251812,65.10124851601181
117245.91766867068,4.78103,60.294106,22.285152,64.45824591053685
117264.0,76.563484,-12.916918,0.8877689,77.65051182353396
117281.75300601202,78.35099,-75.91979,7.803273,109.37816608965763
117299.83533734136,75.37182,-77.302895,-25.800335,111.00588322969938
117317.91766867068,-42.32815,-4.874354,-24.879065,49.339634013782884
117336.0,-78.40124,38.25303,44.75456,98.04600643836596
117354.75300601202,-78.40124,33.117847,35.290607,92.13562376128714
117372.83533734136,-33.39782,16.465601,-9.126552,38.33828828276381
117390.91766867068,10.567082,6.345992,-0.45943835,12.334744426060828
117409.0,-2.9767776,25.82905,38.80579,46.71070933208424
117426.75300601202,-13.912368,50.77751,29.8611,60.52763664952997
117444.83533734136,46.764603,37.262363,13.60129,61.32215651585875
117462.91766867068,78.35099,-33.9434,7.7003784,85.73405312385088
117481.0,78.35099,-76.75014,7.5448394,109.93810179174231
117498.75300601202,74.701805,-76.46298,-17.626162,108.34033675223955
117516.83533734136,-14.850388,-27.075754,-19.882673,36.728070518936725
117534.91766867068,-78.40124,25.529936,24.69242,86.07117793523042
117553.0,-78.40124,27.444263,40.49997,92.41314611651131
117570.75300601202,-69.528336,13.764008,14.060728,72.25885063466582
117588.83533734136,-26.968075,13.22321,-4.8647823,30.426903535130194
117606.91766867068,-8.561825,24.93171,7.0183992,27.27916674286965
117625.0,-7.475445,31.98361,24.489021,40.97005902019871
117643.75300601202,7.779344,35.68783,30.34686,47.487591169050006
117661.83533734136,34.455482,18.552216,27.618946,47.89750657929801
117679.91766867068,65.74754,-6.532639,16.439278,68.08571252118321
117698.0,75.754684,-31.452383,5.6257267,82.21723265363313
117715.75300601202,74.12033,-44.144367,-0.3565433,86.27094285021094
117733.83533734136,61.452274,-46.64017,-5.6257267,77.35202801674349
117751.91766867068,37.963486,-38.37028,-4.761887,54.18653176160443
117770.0,5.9009113,-29.973566,-6.020557,31.13651424801872
117787.75300601202,-25.340897,-20.445007,2.864311,32.685832550194874
117805.83533734136,-45.09914,-19.19591,4.113409,49.186741334113414
117823.91766867068,-66.59224,-16.680962,5.8243384,68.89632674722768
117842.0,-74.117935,-1.1246668,8.001884,74.557114426624
117860.75300601202,-78.40124,26.16645,22.591446,85.68436830315677
117878.83533734136,-78.40124,51.55042,31.026445,98.82732681324546
117896.91766867068,-76.8626,70.22467,27.480156,107.67786462014018
117915.0,-67.092354,75.80254,30.24875,105.6522404508083
117933.75300601202,-22.52205,56.259663,27.920452,66.72289005251776
117951.83533734136,19.684061,26.702461,24.867102,41.459093607876255
117969.91766867068,54.656414,0.8829831,24.094193,59.738039696792285
117988.0,72.916695,-15.915232,18.437357,76.87701316051697
118005.75300601202,78.348595,-33.840508,9.818102,85.90737713988533
118023.83533734136,78.35099,-43.550926,-3.3979294,89.70566712111872
118041.91766867068,77.683365,-39.102512,-6.252669,87.1940795699853
118060.0,60.531002,-30.301395,-1.4644598,67.70761688743626
118077.75300601202,28.147778,-21.38542,1.2299547,35.371547654544834
118095.83533734136,5.029893,-20.823086,-5.886554,22.216035923399136
118113.91766867068,-2.6154485,-23.400248,-4.556097,23.982706210748304
118132.0,-4.7594943,-34.974743,-14.010477,37.976030593985335
118150.75300601202,-30.514364,-30.040567,-9.193553,43.79593009367188
118168.83533734136,-69.6073,-2.5723763,5.57069,69.87722032390027
118186.91766867068,-78.40124,34.97714,19.349054,88.00307180327353
118205.0,-78.40124,62.301754,30.258324,104.61275809528728
118222.75300601202,-68.10456,68.35821,29.887423,101.01650370498193
118240.83533734136,-38.635895,58.276882,26.968075,74.94133990861502
118258.91766867068,8.681471,30.614866,26.889109,41.66127868579742
118277.0,56.991894,-0.42115182,24.010439,61.84459985750936
118294.75300601202,77.74798,-26.795784,20.380398,84.72380454685364
118312.83533734136,78.35099,-43.244637,0.82076746,89.49664754875047
118330.91766867068,78.35099,-47.169003,-10.9786625,92.11038762421433
118349.0,76.460594,-40.700974,-8.44218,87.02908779559804
118366.75300601202,46.494205,-22.457443,-5.55394,51.93162903475948
118384.83533734136,11.545781,-14.938925,-2.0028641,18.98652163137458
118402.91766867068,-7.549625,-15.391185,-4.3287706,17.681167050064154
118421.0,-17.463444,-18.202852,-4.22109,25.576029755674355
118439.75300601202,-32.61055,-23.742434,-0.8734115,40.34741616504319
118457.83533734136,-50.181675,-23.29496,-0.54558307,55.327690427971916
118475.91766867068,-71.79203,-1.6487137,8.652756,72.33038099430281
118494.0,-78.40124,32.127186,26.274132,88.70873985222437
118511.75300601202,-69.54509,54.3908,26.410526,92.15418900595228
118529.83533734136,-44.44827,53.170418,21.11502,72.44712641566967
118547.91766867068,-7.757808,43.933792,27.391619,52.35133671555377
118566.0,21.06477,39.42077,29.557201,53.58497712512529
118583.75300601202,59.035435,26.1162,26.333954,69.71883261611127
118601.83533734136,78.35099,-8.942298,16.953754,80.66146603052427
118619.91766867068,78.35099,-62.294575,9.7415285,100.5703191101979
118638.0,78.35099,-78.40124,-17.18108,112.16426158756674
118655.75300601202,-2.4048727,-35.575363,-39.114475,52.92761112888621
118673.83533734136,-78.40124,38.83211,22.572302,90.35594069107412
118691.91766867068,-78.40124,44.254444,40.107533,98.55873604421286
118710.0,-13.943476,21.272953,-9.310805,27.08597685243805
118728.75300601202,17.903738,3.6874714,17.092543,25.025912688757444
118746.83533734136,-9.973641,50.825367,28.126242,58.938755793824946
118764.91766867068,52.9742,50.6459,18.305746,75.54054136069264
118783.0,78.35099,-57.975376,16.463207,98.84866737112
118800.75300601202,78.35099,-78.40124,-18.013813,112.29483303481364
118818.83533734136,-20.93316,-22.091328,-50.693756,59.127665756198425
118836.91766867068,-78.40124,66.8746,54.007935,116.34355848804792
118855.0,-75.991585,50.016563,32.983845,96.7693732341448
118872.75300601202,29.487806,-12.627376,-9.023657,33.322780691182736
118890.83533734136,25.290646,15.190181,28.767542,41.20594431185677
118908.91766867068,-3.022243,76.5252,28.82497,81.8298178128972
118927.0,77.140175,-15.539545,13.579754,79.85295095698196
118945.75300601202,78.35099,-78.40124,-1.5434257,110.85131587134688
118963.83533734136,14.6398115,-46.965607,-55.060814,73.83620764893452
118981.91766867068,-78.40124,54.118008,41.452347,103.89326395505184
119000.0,-76.18062,52.488438,34.259266,98.65201616856596
119018.75300601202,25.044176,-5.953555,-10.631691,27.85118349687284
119036.83533734136,22.979097,11.892754,22.072184,34.009672200269456
119054.91766867068,-3.6085055,74.0629,34.694775,81.86612169056352
119073.0,75.23303,-6.7575727,18.260283,77.71172065407363
119090.75300601202,78.35099,-78.40124,6.925076,111.056691581928
119108.83533734136,36.68807,-57.67148,-51.751423,85.7334466135605
119126.91766867068,-78.40124,49.36091,31.660566,97.9063088314847
119145.0,-78.40124,53.948112,35.058495,101.42115801728538
119162.75300601202,13.283032,-6.9394336,-22.404799,26.954956798930954
119180.83533734136,10.279933,20.155464,18.236353,29.060012427395726
119198.91766867068,-7.903775,70.31082,31.787392,77.566225630004
119217.0,77.39143,-8.17896,17.099722,79.6789138769084
119235.75300601202,78.35099,-78.40124,12.261261,111.51668300674936
119253.83533734136,38.025703,-62.562584,-39.145584,83.02052608904813
119271.91766867068,-78.40124,38.037666,27.8032,91.46931943829667
119290.0,-78.40124,47.573406,33.476784,97.62519377169549
119307.75300601202,-0.8877689,6.1378093,-14.59674,15.859560373811556
119325.83533734136,0.052643977,24.122906,18.540253,30.42463387745462
119343.91766867068,-14.517774,71.79442,27.023111,78.07338236025001
119362.0,69.45655,13.512752,23.390676,74.52469743818473
119379.75300601202,78.35099,-77.98727,21.674961,112.65298864381947
119397.83533734136,62.048107,-74.41466,-23.223173,99.63345306365217
119415.91766867068,-70.87794,10.153109,6.819788,71.92549971584782
119434.0,-78.40124,34.149193,31.62946,91.17754414317403
119451.75300601202,-44.89574,22.222937,-5.068179,50.35049987268855
119469.83533734136,-13.5941105,22.395227,2.9193478,26.36036085195163
119487.91766867068,0.89494765,41.44756,18.734077,45.49359078256815
119506.0,45.52747,34.46984,25.410292,62.50282660609649
119524.75300601202,78.35099,-51.02637,16.515852,94.94915184793861
119542.83533734136,78.35099,-77.546974,-5.1447525,110.35795978914722
119560.91766867068,14.189945,-42.923985,-14.386164,47.44243608857102
119579.0,-75.14928,-3.1179593,14.910211,76.67757394948916
119596.75300601202,-78.40124,14.355056,27.621338,84.35496653553352
119614.83533734136,-76.31941,40.133854,18.825008,88.25961424027119
119632.91766867068,-37.413116,52.557835,11.186846,65.47681110243838
119651.0,11.196417,31.672531,13.7664,36.30458294132919
119668.75300601202,56.309914,11.359135,28.698147,64.21386146206464
119686.83533734136,78.32467,-28.071205,15.221289,84.58388806139409
119704.91766867068,78.35099,-45.101532,-1.0361292,90.4107260586166
119723.0,59.545124,-38.573677,-2.6728783,70.9978494595598
119740.75300601202,-2.5867336,-26.592388,1.7061435,26.772321825021177
119758.83533734136,-42.742123,-23.330854,4.0559793,48.86377794438815
119776.91766867068,-66.98946,-22.543587,5.3960075,70.8866557460445
119795.0,-78.40124,21.091091,10.208146,81.8278363264311
119813.75300601202,-78.36295,65.508255,17.908524,103.69570211781249
119831.83533734136,-42.73734,67.6188,15.553903,81.49052854319334
119849.91766867068,28.198029,31.698854,26.819714,50.19206355032589
119868.0,76.99182,-9.923389,25.608902,81.74368390159161
119885.75300601202,78.35099,-44.287945,8.9973345,90.45027216326115
119903.83533734136,78.35099,-48.702858,-6.587676,92.48915334475302
119921.91766867068,39.829956,-31.919,4.5895977,51.24755958101597
119940.0,-20.004711,-19.554846,9.30602,29.481900761613677
119957.75300601202,-50.58608,-21.768286,15.465365,57.201287395717074
119975.83533734136,-55.407787,-24.929316,-2.6154485,60.813931194434204
119993.91766867068,-78.40124,24.122906,7.7960944,82.39810747411707
120012.0,-75.76904,66.68078,17.800844,102.48972578284292
120030.75300601202,-49.85624,72.139,24.902994,91.15831886395029
120048.83533734136,19.329912,32.00036,18.07842,41.52707319031458
120066.91766867068,67.18329,-2.2828343,23.68979,71.27420247122697
120085.0,78.35099,-34.43395,0.93802,85.58886859926938
120103.75300601202,76.01791,-40.287,-3.43143,86.10191473836687
120121.83533734136,39.93524,-32.440655,-3.4266443,51.56511787871087
120139.91766867068,-5.8195524,-20.042997,-2.995921,21.084697330447874
120158.0,-22.658447,-23.491179,-1.4883888,32.67194534278323
120175.75300601202,-52.6368,-25.855371,2.1464386,58.683388811921986
120193.83533734136,-76.19019,8.205282,12.25169,77.60396647589428
120211.91766867068,-78.40124,54.740166,25.010675,98.83710877600974
120230.0,-65.07035,72.51469,26.417706,100.94763942371826
120247.75300601202,1.1677392,38.69811,22.86663,44.96432029919074
120265.83533734136,66.003586,7.810452,28.604824,72.35822331549245
120283.91766867068,78.35099,-29.31791,12.864274,84.63986664861469
120302.0,78.35099,-40.222393,-6.0516644,88.27990243898537
120320.75300601202,63.438385,-26.403347,-6.999256,69.06920448915109
120338.83533734136,3.2711053,-19.018833,-3.254355,19.57056373821669
120356.91766867068,-15.357684,-28.56893,-7.207439,33.22633588175917
120375.0,-64.20412,-28.406212,0.9763065,70.21420853036291
120392.75300601202,-78.40124,23.589289,20.543116,84.41106920334903
120410.83533734136,-78.001625,67.5853,31.07909,107.7865302992852
120428.91766867068,-13.649148,51.820816,24.946068,59.11008814654554
120447.0,62.447723,10.263183,33.591644,71.6480954373454
120464.75300601202,78.35099,-30.720154,14.522559,85.40205041843139
120482.83533734136,78.35099,-42.988594,-10.775265,90.01668280878361
120500.91766867068,54.627697,-29.485413,-10.480937,62.95573762336795
120519.0,-1.7946811,-23.249495,-7.2648687,24.424131821499035
120536.75300601202,-32.68234,-33.428925,-4.9389625,47.01086815947597
120554.83533734136,-78.32467,3.3500714,8.932726,78.90355190221207
120572.91766867068,-78.40124,61.093338,21.89511,101.7769434765652
120591.0,-36.02523,67.49676,23.74722,80.1096764740621
120609.75300601202,52.6033,16.28374,19.76542,58.50589019110811
120627.83533734136,78.35099,-26.176022,18.425392,84.63779789242066
120645.91766867068,78.35099,-43.728,-7.6908064,90.05644963611645
120664.0,37.590195,-31.282488,-7.918133,49.541029922821124
120681.75300601202,-23.08917,-29.267658,-5.393615,37.666917299695356
120699.83533734136,-78.40124,-7.2194037,17.745806,80.70804082562536
120717.91766867068,-78.40124,47.293434,26.625889,95.35387405916067
120736.0,-39.255657,63.68964,14.828852,76.27104104094262
120753.75300601202,67.240715,18.71972,20.930767,72.86863987888009
120771.83533734136,78.35099,0.4737958,12.601054,79.35923814119634
120789.91766867068,78.35099,-63.70639,1.2538838,100.98987070689863
120808.0,35.704582,-62.162968,-36.379383,80.38974607388953
120825.75300601202,-78.40124,29.38491,36.72396,91.42689214518505
120843.83533734136,-69.461334,57.917946,-0.14118157,90.43995423569264
120861.91766867068,61.11248,-5.125609,21.325598,64.92910140629458
120880.0,58.456352,61.871033,21.540958,87.80195148852192
120898.75300601202,78.35099,-72.15096,4.7762446,106.61824972949391
120916.83533734136,2.6728783,-54.304657,-51.959606,75.20598849805444
120934.91766867068,-78.40124,68.22899,48.99958,114.90390920301233
120953.0,-6.0755935,8.662328,3.6252558,11.184419626080734
120970.75300601202,45.41261,48.520996,25.625652,71.22686459664794
120988.83533734136,78.35099,-26.779034,5.3266134,82.97208630778374
121006.91766867068,55.59683,-77.16411,-31.347095,100.13964121705261
121025.0,-78.40124,63.636997,35.10875,106.90671703535803
121042.75300601202,-27.18583,21.251417,-1.9047549,34.558937607019445
121060.83533734136,42.957485,38.2961,22.986275,61.97019954067318
121078.91766867068,78.35099,-19.985569,6.594855,81.12824856179805
121097.0,53.713608,-77.499115,-23.491179,97.17561422996476
121114.75300601202,-78.40124,65.07035,36.085052,108.08809305609385
121132.83533734136,-29.516521,18.030563,2.474267,34.67633503165666
121150.91766867068,67.02535,53.656178,41.014446,95.15023783930916
121169.0,78.35099,-76.604164,16.109056,110.75458122050813
121187.75300601202,-64.35487,9.5907755,-48.059166,80.89014590185789
121205.83533734136,-78.40124,45.482002,0.54558307,90.64030339949153
121223.91766867068,76.10883,43.658607,25.424648,91.35119427283506
121242.0,78.35099,-69.406296,13.704185,105.56474906394624
121260.75300601202,-67.24311,2.2230117,-44.874207,80.87194864332926
121278.83533734136,-71.56949,42.060146,-26.424885,87.11786457245518
121296.91766867068,78.35099,59.63127,41.914177,107.01198170943444
121315.0,70.86119,-78.40124,9.688885,106.12227463778245
121332.75300601202,-78.40124,51.98832,59.43266,111.27345112215941
121350.83533734136,69.16461,30.040567,23.685005,79.03896762979393
121368.91766867068,78.35099,-65.70208,19.834816,104.15882524328102
121387.0,-78.40124,27.18583,-5.549154,83.1662004449056
121404.75300601202,-19.035583,40.083603,-12.742235,46.16723082887604
121422.83533734136,78.35099,-2.8738825,13.0581,79.48365121340304
121440.91766867068,-60.014133,-28.506714,-51.48581,84.05425351625928
121459.0,-53.761467,44.347767,-36.57799,78.70812616444682
121477.75300601202,75.11099,68.97079,43.885933,111.01624118697539
121495.83533734136,18.920725,-78.40124,-7.9253116,81.0404765041539
121513.91766867068,-78.40124,62.74923,28.813005,104.47205155571764
121532.0,71.102875,52.253933,36.36981,95.4403239027939
121549.75300601202,77.59962,-78.40124,24.130085,112.91907039906602
121567.83533734136,-78.40124,62.63437,50.274998,112.23811368129145
121585.91766867068,32.83788,21.36149,8.430215,40.07128826055789
121604.0,78.353386,-22.890558,11.773108,82.47324908839244
121621.75300601202,-17.470621,-37.367653,-51.973965,66.35402871473046
121639.83533734136,-74.72334,59.470943,4.2809124,95.59653138603578
121657.91766867068,44.182655,37.657196,24.244946,62.912548986464984
121676.0,78.35099,-67.8892,23.553394,106.31360909845614
121694.75300601202,-45.60883,-6.0827723,-43.603573,63.391143475953136
121712.83533734136,-68.91576,50.870834,-2.7781663,85.70263669353244
121730.91766867068,49.368088,25.814693,15.762086,57.89688974833959
121749.0,78.35099,-33.9099,18.375141,87.32928923768921
121766.75300601202,25.838621,-65.74994,-37.968273,80.20148813948386
121784.83533734136,-78.40124,60.928226,42.27551,107.91766260814202
121802.91766867068,5.652049,18.425392,-1.0887731,19.3035270123195
121821.0,57.858124,59.832275,33.49832,89.71956914351183
121838.75300601202,78.353386,-78.40124,28.485178,114.44392905215322
121856.83533734136,-47.14747,-10.679549,-28.262638,55.99744102156227
121874.91766867068,-78.40124,47.745697,11.423743,92.50355625425144
121893.0,18.253103,30.74169,13.653934,38.27083990273881
121910.75300601202,78.353386,2.134474,35.740475,86.14633265640097
121928.83533734136,73.57235,-76.92721,-1.3998512,106.45490080916305
121946.91766867068,-72.74919,-8.363214,-6.326849,73.50113612955039
121965.0,-78.40124,34.697166,-9.0069065,86.20772660654553
121983.75300601202,3.5558615,71.476166,17.511301,73.67585845973795
122001.83533734136,78.35099,-57.55901,38.77229,104.66712825908762
122019.91766867068,61.732243,-48.487495,-2.8523464,78.5496204775788
122038.0,-78.40124,-27.96831,24.003262,86.63219600376262
122055.75300601202,-78.40124,59.97824,-32.842663,104.03261132917298
122073.83533734136,60.05003,53.558067,26.185593,84.61771637511283
122091.91766867068,78.353386,-78.40124,23.02217,113.20789655634229
122110.0,-52.509975,-2.08183,-5.4821525,52.836403044518285
122127.75300601202,-78.40124,-47.439404,-2.9863493,91.68516656228763
122145.83533734136,-58.31278,78.36774,15.585011,98.91802440357431
122163.91766867068,78.353386,-61.464237,35.800297,105.82422592651162
122182.0,25.08007,-29.310732,-1.0959519,38.59183893192753
122199.75300601202,-78.40124,-60.71765,20.512009,101.26267806194038
122217.83533734136,-77.10189,78.36774,13.302176,110.73911684953369
122235.91766867068,78.353386,-45.860085,34.307125,97.05348690097563
122254.0,49.47098,-41.830425,-6.6163907,65.12249184218976
122272.75300601202,-78.40124,-62.682228,27.867807,104.1750008762699
122290.83533734136,-78.40124,78.36774,-14.288054,111.769430495785
122308.91766867068,78.353386,-12.471837,31.524172,85.37314118682262
122327.0,71.75374,-60.162495,-4.493881,93.7460397833145
122345.75300601202,-78.40124,-40.63158,31.650995,93.80546471994063
122363.83533734136,-78.40124,78.300735,-27.255222,114.10787291570686
122381.91766867068,77.37229,-5.601798,23.40982,81.03006277369717
122400.0,77.48476,-68.42999,2.967206,103.41835366657186
122417.75300601202,-76.7956,-26.850822,21.134165,84.05464741275706
122435.83533734136,-78.40124,75.27132,-33.002987,113.58575262330294
122453.91766867068,75.89587,12.1152935,29.8611,82.45391872347876
122472.0,78.353386,-77.55654,4.7236004,110.34755273759122
122489.75300601202,-77.369896,-3.82626,17.23851,79.35935546398116
122507.83533734136,-78.40124,51.638958,-26.015697,97.4174158313552
122525.91766867068,20.38997,66.90571,38.166885,79.67958344399288
122544.0,78.353386,-78.171524,24.180336,113.29046257836742
122562.75300601202,-46.57556,2.2756555,1.3424214,46.65043936002595
122580.83533734136,-68.75064,-45.33125,0.31107804,82.3508925059047
122598.91766867068,-78.40124,78.36774,10.160288,111.31706319557728
122617.0,78.24331,-24.240158,29.272444,86.98549762664004
122634.75300601202,78.353386,-70.32039,-2.9935281,105.32412619102323
122652.83533734136,-78.19545,0.42115182,23.732862,81.71875248845294
122670.91766867068,-66.3027,-0.9954498,-36.020447,75.46198744847719
122689.0,-57.446545,78.36774,28.762754,101.33560195118565
122706.75300601202,78.353386,-38.087917,37.922806,95.01621826813316
122724.83533734136,72.842514,-59.049793,-8.88726,94.19072825650433
122742.91766867068,-78.0782,-0.2368979,25.429434,82.11526989187443
122761.0,-42.67991,-2.060294,-39.621773,58.27267305210964
122778.75300601202,-70.52618,78.36774,24.020012,108.13142796883866
122796.83533734136,78.353386,-25.003496,37.700268,90.47506903649665
122814.91766867068,78.353386,-75.795364,-10.619726,109.53067552915289
122833.0,-78.00402,25.477293,25.388756,85.89708100975135
122851.75300601202,-58.927753,-26.336346,-9.478309,65.2374243495266
122869.83533734136,-71.04784,76.27634,-2.445552,104.26819427344996
122887.91766867068,72.01457,38.109455,36.68807,89.3557123691979
122906.0,78.353386,-78.40124,28.006596,114.32574928995572
122923.75300601202,-47.458546,12.148794,-18.03774,52.20408842606249
122941.83533734136,-78.40124,2.4144442,14.364627,79.74287731942988
122959.91766867068,-53.67532,65.69011,-5.798016,85.02851003311041
122978.0,74.84059,40.808655,33.651466,91.64541122394662
122995.75300601202,78.353386,-78.40124,30.186535,114.87921668652177
123013.83533734136,-66.85785,11.462029,-16.865215,69.89839549242576
123031.91766867068,-77.23589,48.89908,-9.219875,91.87768403673509
123050.0,61.270412,22.033897,23.512714,69.22718919111297
123068.75300601202,78.353386,-3.3955367,21.13895,81.22584548189414
123086.83533734136,41.61028,-76.17105,-29.511736,91.67544284875092
123104.91766867068,-78.40124,74.5008,39.47341,115.13154967777382
123123.0,55.156532,-1.8592896,18.466072,58.19532451316752
123140.75300601202,58.700428,52.11036,29.052298,83.69746642398196
123158.83533734136,73.64653,-78.40124,2.1560102,107.58816939868902
123176.91766867068,-78.40124,61.882996,8.1526375,100.21339793500678
123195.0,9.99757,20.631653,-5.5084743,23.578799811081765
123212.75300601202,58.93254,52.189327,36.709602,86.85830416582478
123230.83533734136,78.353386,-78.40124,20.301432,112.68609351846935
123248.91766867068,-78.40124,41.409275,-15.190181,89.95679011823391
123267.0,-36.61867,53.218277,-9.987998,65.36720969618968
123284.75300601202,62.737263,33.148956,33.546177,78.48670870877714
123302.83533734136,78.353386,-64.38358,25.82187,104.6483035771641
123320.91766867068,-38.121418,-34.50813,-61.411594,80.09642578822391
123339.0,-78.40124,78.36774,32.05779,115.39479626884957
123357.75300601202,76.30027,-15.987019,33.622753,84.89879562089364
123375.83533734136,68.47546,40.70576,28.332031,84.54910703238775
123393.91766867068,71.531204,-78.40124,8.676684,106.48357819148957
123412.0,-78.40124,62.878445,4.6015625,100.60630028282041
123430.75300601202,-31.899858,31.296844,-11.962148,46.26214834564435
123448.83533734136,46.5636,29.564379,25.4749,60.75517986662241
123466.91766867068,78.353386,-36.972824,27.032682,90.75796774010036
123485.0,37.642838,-75.278496,-27.5328,88.55444815793423
123502.75300601202,-78.40124,78.21938,32.431084,115.39844474921253
123520.83533734136,29.889814,-1.4285661,-1.7228938,29.973490706001257
123538.91766867068,8.085636,61.57431,26.795784,67.63717322357027
123557.0,78.353386,-58.374992,30.607687,102.39005465451724
123574.75300601202,29.542843,-66.48216,-39.633736,82.84618398034965
123592.83533734136,-78.40124,77.8437,39.128834,117.20691836844426
123610.91766867068,10.574261,13.89801,-12.562767,21.51261937450923
123629.0,24.838387,37.319794,21.354311,49.65600760480978
123647.75300601202,71.99064,5.398401,20.966661,75.17576640417656
123665.83533734136,78.24809,-78.40124,8.896832,111.124577127753
123683.91766867068,-77.247856,42.414295,-9.82528,88.67209146074181
123702.0,-74.369194,59.289085,2.6992004,95.14861165117556
123719.75300601202,40.64115,-2.3594074,10.445044,42.02819078622837
123737.83533734136,16.68575,71.06458,22.94081,76.51711930734848
123755.91766867068,78.353386,-63.20388,37.697876,107.49471335666128
123774.0,55.166103,-73.15598,-29.085798,96.13053612283568
123791.75300601202,-78.40124,43.562893,24.020012,92.85171542059518
123809.83533734136,-64.09165,47.870125,-9.32277,80.53696361119549
123827.91766867068,23.189672,13.534288,12.90256,29.789493008242488
123846.0,31.631851,55.58008,21.715641,67.53731083285359
123863.75300601202,78.353386,-58.33192,34.74024,103.67617982839161
123881.83533734136,60.490322,-72.98609,-18.241138,96.53386713836149
123899.91766867068,-77.63072,16.245453,9.176803,79.8414500381501
123918.0,-78.40124,33.85008,9.657777,85.94099723720763
123936.75300601202,-38.588036,58.006485,5.2021823,69.86309129343587
123954.83533734136,46.95125,27.685947,24.780956,59.87509764604351
123972.91766867068,78.353386,-30.490435,33.369102,90.45671170477415
123991.0,78.25049,-69.89924,9.040407,105.31273378154872
124008.75300601202,-0.99784267,-27.135578,-7.992313,28.305694665175164
124026.83533734136,-66.69274,-14.323948,10.681942,69.0449197255357
124044.91766867068,-78.40124,9.408915,-16.721642,80.71490213207836
124063.0,-78.33663,78.36774,1.0098072,110.81132605941357
124080.75300601202,16.501493,49.65045,20.370827,56.14656756290164
124098.83533734136,78.353386,-48.994793,37.958702,99.90298241945858
124116.91766867068,78.353386,-70.49747,13.711364,106.28804202169873
124135.0,3.22564,-20.25118,-0.34218585,20.509318271408738
124153.75300601202,-53.108204,-19.614668,15.898481,58.80457661579753
124171.83533734136,-65.7284,-13.852545,-17.786486,69.48722655110953
124189.91766867068,-78.40124,77.88916,-3.905226,110.58357232950235
124208.0,-13.620433,65.03685,20.72737,69.60554518245576
124225.75300601202,78.353386,-34.326267,40.02378,94.44283281069393
124243.83533734136,78.353386,-78.40124,17.078184,112.15022024026726
124261.91766867068,37.84145,-30.322931,1.5003533,48.51501357887146
124280.0,-63.8045,0.11485959,23.91951,68.1408128188644
124297.75300601202,-31.899858,-44.43152,-0.21057591,54.6973971240354
124315.83533734136,-66.731026,33.419353,-29.74624,80.3412831618271
124333.91766867068,-78.40124,78.36774,5.7860518,111.00331302117736
124352.0,14.233017,53.543713,28.829756,62.45528645173436
124369.75300601202,78.353386,-46.518135,41.74428,100.22861315144304
124387.83533734136,78.353386,-77.02053,11.225132,110.44192468244711
124405.91766867068,24.567987,-21.40935,-1.6152129,32.6275215940009
124424.0,-59.83945,-2.3976939,22.73502,64.05770716112931
124442.75300601202,-15.685513,-49.243656,-8.32732,52.348039435129806
124460.83533734136,-77.03249,48.99958,-12.718307,92.17764744623693
124478.91766867068,-77.82934,78.36774,12.476623,111.15113566233738
124497.0,42.586586,33.29253,31.636639,62.632952893445925
124514.75300601202,78.353386,-69.89924,43.043633,113.48088469905971
124532.83533734136,78.353386,-71.38523,4.158874,106.0773321344658
124550.91766867068,-3.0677083,-12.699163,0.110073775,13.0649030363949
124569.0,-52.69662,-26.70007,-1.8784329,59.10461917303167
124587.75300601202,-78.40124,39.38966,-20.157858,90.0257684643756
124605.83533734136,-62.09836,78.36774,18.013813,101.59826005496437
124623.91766867068,78.353386,-10.756122,38.844078,88.11248296248361
124642.0,78.353386,-78.40124,27.626123,114.23313968903125
124659.75300601202,-7.8487387,-26.482313,-22.560337,35.66348842393879
124677.83533734136,-78.40124,21.445242,-3.3955367,81.35221267708219
124695.91766867068,-72.136604,78.12845,-11.165309,106.92244133539413
124714.0,78.353386,6.7910733,42.108006,89.21017847491959
124732.75300601202,78.353386,-77.369896,36.872322,116.12459702572704
124750.83533734136,-31.174807,-15.630476,-38.595215,52.01702598544106
124768.91766867068,-78.40124,47.82466,15.312219,93.10433173787973
124787.0,-16.434492,44.972313,18.114315,51.19306468445953
124804.75300601202,75.244995,20.255966,41.631817,88.34773125476778
124822.83533734136,78.353386,-78.40124,26.123377,113.87905144093327
124840.91766867068,-66.55634,30.8063,-29.480627,79.04354421582278
124859.0,-77.48476,23.077206,2.3833365,80.8834084463326
124876.75300601202,-34.42677,55.168495,6.5182815,65.35482634749454
124894.83533734136,61.215374,42.9192,48.717216,89.23422480971374
124912.91766867068,78.353386,-78.40124,39.616985,117.70944325623506
124931.0,-22.268402,-5.5826545,-43.771076,49.42625671743461
124948.75300601202,-78.40124,43.90508,21.40217,92.37133410345929
124966.83533734136,-37.17861,6.767144,-21.557709,43.50606965444611
124984.91766867068,-16.223917,77.99923,29.44952,84.93744516787746
125003.0,78.353386,-34.223373,45.714115,96.95500331285307
125021.75300601202,78.353386,-78.40124,5.5874405,110.9830033047567
125039.83533734136,-72.04568,38.133385,-18.59529,83.6093288359901
125057.91766867068,-76.89132,18.83458,13.764008,80.35212760931016
125076.0,-31.883108,30.507185,-13.18253,46.054315862520305
125093.75300601202,-5.4271154,75.33114,31.418882,81.8008580724826
125111.83533734136,78.353386,-36.70003,43.81893,96.98579239254993
125129.91766867068,78.353386,-78.40124,12.495766,111.54439340069653
125148.0,-47.11875,14.209088,-28.688576,56.965859743025206
125165.75300601202,-78.40124,45.644722,25.57301,94.25589594531996
125183.83533734136,-14.225839,-20.583796,-24.589523,35.08150216839447
125201.91766867068,-46.77896,63.68725,11.81618,79.89968098206963
125220.0,20.255966,65.75233,36.22863,77.75722918609533
125237.75300601202,78.353386,-63.0627,40.258286,108.3369134718762
125255.83533734136,78.353386,-78.40124,1.5601761,110.85324388878121
125273.91766867068,-66.21655,17.875023,-10.045428,69.31852973668883
125292.0,-78.40124,24.864708,12.21101,83.15116897965395
125310.75300601202,-30.299002,17.23851,-31.141306,46.7437342175584
125328.83533734136,-28.358355,63.838,18.535465,72.27067181832649
125346.91766867068,76.26916,6.2789907,32.67755,83.21197489135074
125365.0,78.353386,-78.40124,34.488983,116.08401043889242
125382.75300601202,3.0605295,-46.08502,-11.454851,47.58581217813742
125400.83533734136,-78.40124,19.540487,-1.9191123,80.8224477342451
125418.91766867068,-72.332825,78.14759,-0.46661708,106.48615462485286
125437.0,60.810974,6.094737,34.204227,70.03605873116629
125454.75300601202,78.353386,-31.320774,25.479685,88.14453090988287
125472.83533734136,55.209175,-48.183598,10.588618,74.03938783888042
125490.91766867068,-43.632286,-54.321407,-30.918766,76.22704068116643
125509.0,-78.40124,78.36774,8.664721,111.19053240385641
125527.75300601202,20.358862,30.112356,19.767815,41.37636711554079
125545.83533734136,78.353386,-49.679165,36.78857,99.803163353709
125563.91766867068,55.869617,4.4460235,22.967133,60.569550327940604
125582.0,31.019268,-78.20023,-7.729093,84.48200895996362
125599.75300601202,-78.40124,40.193676,-14.965247,89.36579122741311
125617.83533734136,-67.4824,78.36535,7.9300976,103.7202431463021
125635.91766867068,78.353386,-46.59231,45.202034,101.75126695298812
125654.0,76.10883,1.4357449,19.798922,78.65502323277808
125671.75300601202,56.424774,-45.233143,11.136594,73.16977567637036
125689.83533734136,-35.41743,-54.25919,-45.49636,79.17305615239695
125707.91766867068,-78.40124,78.36774,20.775229,112.78238890113848
125726.0,35.314537,20.344505,9.535739,41.856250733857124
125744.75300601202,78.353386,-55.091923,36.31238,102.43516007098015
125762.83533734136,56.73585,15.853016,17.099722,61.340649523754145
125780.91766867068,48.652607,-75.18039,-6.7264647,89.8020742288779
125799.0,-78.40124,16.33399,-28.750792,85.08913975052847
125817.75300601202,-78.40124,78.36774,14.426843,111.78725734712275
125835.83533734136,72.067215,-29.420805,28.250673,82.80922514827186
125853.91766867068,78.353386,-17.671627,25.118357,84.15742009396185
125872.0,63.562817,-15.257182,20.466543,68.49739184762777
125889.75300601202,12.335442,-76.8291,-21.160486,80.63894780998547
125907.83533734136,-78.40124,64.04858,-7.161974,101.49024044276709
125925.91766867068,-58.054344,70.0117,6.092344,91.1540544878541
125944.0,78.353386,-46.297985,29.739061,95.74533023540596
125961.75300601202,75.24739,3.902833,26.805357,79.97455202209912
125979.83533734136,57.470474,-65.40296,13.498395,88.10567079434955
125997.91766867068,-68.7315,-18.121492,-39.171906,81.1593850656158
126016.0,-78.40124,78.36774,23.108313,113.23537978896512
126033.75300601202,66.147156,-9.358664,23.682611,70.87945331709713
126051.83533734136,77.927444,-13.689827,26.95611,83.5866601677275
126069.91766867068,58.96365,-16.422527,23.32846,65.50288894667035
126088.0,10.356506,-72.399826,-19.109764,75.59216296345812
126106.75300601202,-78.40124,52.06011,3.7329366,94.18569053953642
126124.83533734136,-61.854282,75.83844,16.298098,99.21214231023706
126142.91766867068,77.94659,-37.76727,39.04269,95.0072061388877
126161.0,71.00716,4.3024487,22.000397,74.4617036082263
126178.75300601202,56.211803,-12.179902,19.4017,60.700434694740146
126196.83533734136,35.869694,-69.86334,-6.8963614,78.83578517506277
126214.91766867068,-72.129425,9.844424,-25.405506,77.1038674116833
126233.0,-78.40124,74.6348,17.982704,109.72914584434355
126250.75300601202,-14.587168,45.087173,5.173467,47.66973253745233
126268.83533734136,54.92681,10.4354725,40.775154,69.198748014672
126286.91766867068,78.353386,-38.616753,30.507185,92.52672612036065
126305.0,74.01743,-71.49291,9.272519,103.32374234743126
126322.75300601202,-12.347405,-17.42037,-22.11765,30.74277382887603
126340.83533734136,-78.40124,23.991297,0.78008807,81.99356866655314
126358.91766867068,-71.00476,15.862588,-7.8128448,73.17334340170764
126377.0,-54.096474,71.22491,4.084694,89.53268134493914
126395.75300601202,0.48815325,74.388336,33.354748,81.52546866217872
126413.83533734136,78.353386,-39.222157,46.747852,99.31259922090221
126431.91766867068,78.353386,-78.40124,14.59674,111.79925022034001
126450.0,-38.38464,7.729093,-23.668255,45.752658515951545
126467.75300601202,-78.40124,53.811718,24.022404,98.07920942579187
126485.83533734136,-11.4716015,-25.74769,-21.440456,35.41517096949891
126503.91766867068,-48.21231,63.017235,-1.0193789,79.35135711456415
126522.0,0.89494765,74.38116,42.18697,85.51665529019911
126539.75300601202,78.353386,-69.406296,54.730595,118.11826722043732
126557.83533734136,78.353386,-78.245705,-6.3292418,110.91304138997762
126575.91766867068,-77.67619,53.414494,1.5051392,94.28130305741172
126594.0,-69.81548,28.028133,14.910211,76.69479694973192
126611.75300601202,-2.3737648,-3.4051082,-25.216465,25.555813981864308
126629.83533734136,-48.19556,78.36774,17.73145,93.69481840274679
126647.91766867068,78.353386,-21.782642,50.6794,95.82347402659309
126666.0,78.353386,-78.40124,16.525423,112.06737766420487
126684.75300601202,-61.63174,29.99271,-18.497179,70.9942227193857
126702.83533734136,-77.56612,36.685673,20.188965,88.14723979279529
126720.91766867068,-5.790838,-6.987292,-18.451714,20.56263124634841
126739.0,-46.302773,77.05403,17.556767,91.59427053163706
126756.75300601202,71.361305,11.220346,51.950035,88.97830158057619
126774.83533734136,78.353386,-78.40124,28.786684,114.51934643071647
126792.91766867068,10.674763,-24.292803,-39.91849,47.933043785921605
126811.0,-78.40124,49.042652,12.804451,93.35893162489653
126829.75300601202,-37.228863,-13.694613,-6.1737027,40.14530197321381
126847.83533734136,-32.383224,41.976395,-4.374236,53.1960983006639
126865.91766867068,-20.263145,76.13755,24.730705,82.57801968496551
126884.0,71.89971,-13.661112,43.27335,85.02221532860187
126902.75300601202,78.353386,-78.40124,24.06069,113.42364980231723
126920.83533734136,43.687325,-48.28649,-30.514364,71.91170900834037
126938.91766867068,-73.40006,34.146797,-12.617805,81.93156630005821
126957.0,-78.40124,25.78837,19.808493,84.87738718719815
126974.75300601202,-37.72898,-6.7767158,1.0457008,38.347011605045445
126992.83533734136,-25.163822,35.738083,-0.96194905,43.719033156479675
127010.91766867068,-31.516993,61.335022,15.83148,70.75267861002108
127029.0,21.280132,51.358986,41.59353,69.43062147746137
127046.75300601202,78.355774,-46.709564,35.10875,97.74474417978529
127064.83533734136,78.353386,-78.40124,10.859017,111.3729131405338
127082.91766867068,56.58749,-59.827488,-23.900366,85.7478853373318
127101.0,-59.193367,17.185865,-16.4321,63.79045824419914
127118.75300601202,-78.40124,32.04104,13.907582,85.83008513863845
127136.83533734136,-73.27802,10.543153,16.424921,75.83273910494101
127154.91766867068,-34.627773,9.870746,-3.0581365,36.136774736944595
127173.0,-22.73502,38.224316,8.533111,45.28568704796889
127191.75300601202,-1.7133222,43.12499,19.24616,47.25584524909816
127209.83533734136,48.27692,22.696733,26.62828,59.62271370306864
127227.91766867068,78.355774,-14.295233,23.759184,83.11726553496104
127246.0,78.353386,-57.427402,17.55916,98.71921645779103
127263.75300601202,61.58149,-76.6257,-2.5197322,98.33680318919167
127281.83533734136,-35.410255,-37.80077,-30.148249,59.930804178852185
127299.91766867068,-78.40124,65.94615,23.484,105.10541084720663
127318.0,-65.773865,76.99899,19.985569,103.22048607864666
127335.75300601202,75.27132,-34.03194,29.966389,87.87450724985786
127353.83533734136,78.355774,-42.06254,22.732626,91.79137691115953
127371.91766867068,31.28488,39.880207,12.90256,52.30344808452736
127390.0,53.127346,-38.470783,16.360313,67.60307595882583
127407.75300601202,44.000793,-78.40124,-25.8123,93.53661876215352
127425.83533734136,-78.40124,34.091763,-16.60439,87.09023197384349
127443.91766867068,-78.40124,78.36774,32.947952,115.64525345745714
127462.0,34.36455,20.210503,10.004748,41.10330535077456
127480.75300601202,78.353386,-74.90999,37.551907,114.72098944309077
127498.83533734136,45.113495,23.211208,9.100229,51.544173053670484
127516.91766867068,21.27056,45.831367,12.354585,52.015254438717434
127535.0,75.096634,-66.46302,16.532602,101.63741631181284
127552.75300601202,16.436886,-74.512764,-38.315243,85.38372834706706
127570.83533734136,-78.40124,53.522175,-5.1950035,95.07031982502866
127588.91766867068,-78.40124,78.36774,21.864,112.98801530359404
127607.0,40.511932,14.132515,13.567789,45.00032792043154
127624.75300601202,78.355774,-66.80521,29.98553,107.24595755395201
127642.83533734136,41.263306,33.627537,23.713718,58.27359683526948
127660.91766867068,63.806892,-12.139223,28.102312,70.77019246468626
127679.0,57.65712,-78.40124,1.251491,97.32761247433886
127696.75300601202,-78.40124,19.50938,-23.893187,84.25114080259667
127714.83533734136,-78.40124,78.36774,27.176258,114.13503452107844
127732.91766867068,53.8165,3.3692145,7.628591,54.45881635917449
127751.0,78.355774,-51.51931,27.159508,97.62942946067666
127769.75300601202,41.375774,29.296373,16.441671,53.29691070152609
127787.83533734136,63.24217,-39.004402,22.892952,77.7496153878642
127805.91766867068,42.445404,-78.40124,-22.615374,91.9772901069644
127824.0,-78.40124,33.213566,-14.230624,86.32731931088404
127841.75300601202,-78.40124,78.36774,25.316967,113.70666613846477
127859.83533734136,29.140835,11.1796665,0.87580436,31.224033064699412
127877.91766867068,78.355774,-45.415,23.182493,93.48570760193306
127896.0,42.043396,27.204971,12.847524,51.699288846697236
127913.75300601202,44.180264,3.6563635,19.219837,48.3183904477415
127931.83533734136,74.39312,-68.293594,13.335677,101.86359293594333
127949.91766867068,21.466778,-56.795673,-27.209759,66.53526894859819
127968.0,-75.29524,21.70607,-13.242353,79.47255220816248
127986.75300601202,-78.40124,61.502525,20.212894,101.67534656330639
128004.83533734136,-47.920376,58.319958,-1.4524952,75.4962891764169
128022.91766867068,6.8891826,36.1712,8.19571,37.722489429254836
128041.0,26.910645,42.12954,35.10875,61.08768518686991
128059.75300601202,71.50009,-12.696771,35.824226,80.9743541643502
128077.83533734136,78.355774,-77.35315,21.4596,112.17687625451859
128095.91766867068,68.93729,-72.658264,-7.475445,100.43632588852412
128114.0,-45.36475,0.650871,-10.078929,46.47546648940904
128131.75300601202,-78.40124,39.449482,19.059513,89.81247741490652
128149.83533734136,-45.58729,-6.176096,9.181588,46.911051251779256
128167.91766867068,-9.083479,-14.929354,-23.933867,29.634864453451545
128186.0,-58.700428,68.74586,-9.404129,90.88548375164994
128203.75300601202,-35.290607,78.36774,17.973133,87.80639569514135
128221.83533734136,68.14523,9.858782,45.9893,82.80086756046957
128239.91766867068,78.355774,-78.40124,37.420296,116.99000087787114
128258.0,71.82074,-73.0842,-13.141851,103.30647236012756
128276.75300601202,-65.36946,30.454542,-11.088737,72.96304213351122
128294.83533734136,-78.40124,51.73228,29.97596,98.59787728677327
128312.91766867068,-4.563276,-33.239887,-7.6931996,34.42236040294717
128331.0,-24.572773,14.450772,-24.869493,37.8303802040445
128348.75300601202,-75.67572,78.36774,0.22971918,108.94204900371416
128366.83533734136,43.95533,56.16634,45.15657,84.41471790256365
128384.91766867068,78.355774,-77.91548,51.04791,121.72238273274795
128403.0,76.77646,-76.85782,-10.160288,109.1099480227488
128420.75300601202,-71.48813,41.574387,-15.8769455,84.20843059772957
128438.83533734136,-78.00641,35.41504,19.76542,87.91983216013381
128456.91766867068,-12.483802,-28.353567,-21.883144,37.92943534147891
128475.0,-57.075645,65.67097,-9.475916,87.52198887677302
128492.75300601202,2.5149465,73.07463,38.042454,82.42241692571795
128510.83533734136,78.355774,-62.663086,49.147938,111.72201876010975
128528.91766867068,78.355774,-78.40124,4.6207056,110.94022116851285
128547.0,-41.263306,10.827909,-26.793392,50.37648151893482
128565.75300601202,-78.40124,46.36738,17.8152,92.81201276042881
128583.83533734136,-28.253065,-21.524208,-2.8834543,35.63483577374361
128601.91766867068,-30.739298,39.164726,-10.4354725,50.86923717224524
128620.0,-41.409275,78.12845,17.73145,90.1841841706772
128637.75300601202,63.20388,7.0423284,42.749302,76.6278517109481
128655.83533734136,78.355774,-78.40124,27.614159,114.23188490939803
128673.91766867068,56.089767,-60.56211,-23.27821,85.76541372004503
128692.0,-73.4216,37.42269,-13.294997,83.47422367788819
128709.75300601202,-78.090164,32.251614,22.009968,87.3079550242297
128727.83533734136,-22.333012,-27.355726,-1.2969562,35.33809934566287
128745.91766867068,-29.224586,18.801079,-9.128944,35.92902193200885
128764.0,-54.96749,69.51877,6.7336435,88.87984188778742
128781.75300601202,-5.7166576,69.6408,37.08768,79.10763052031098
128799.83533734136,74.68984,-8.731722,42.42626,86.34119935406552
128817.91766867068,78.355774,-77.27897,26.05159,113.09443781604857
128836.0,78.00641,-77.771904,-5.7358007,110.30126228898489
128854.75300601202,-6.8796105,-22.902523,-24.390913,34.15803327726595
128872.83533734136,-77.36033,24.249731,1.040915,81.07868779968314
128890.91766867068,-78.40124,15.472544,14.867138,81.28459782566793
128909.0,-54.9986,21.90468,-11.677391,60.340885545617255
128926.75300601202,-46.716743,53.136917,5.9224477,71.00043247440239
128944.83533734136,28.542608,23.041311,26.455992,45.22722627737024
128962.91766867068,78.355774,-14.113372,25.931946,83.73338887024921
128981.0,78.355774,-23.213602,18.475643,83.78453330547906
128998.75300601202,63.89543,-52.9407,7.054293,83.2772882669984
129016.83533734136,9.609919,-69.62166,-22.84988,73.90293025554915
129034.91766867068,-78.40124,35.833797,-5.601798,86.38400072818817
129053.0,-78.40124,78.36774,28.154957,114.37201891160726
129071.75300601202,46.36738,6.7838945,17.12365,49.8916279747818
129089.83533734136,78.355774,-48.001736,31.435633,97.11844830032788
129107.91766867068,55.99644,17.712305,11.7755,59.899828391545704
129126.0,47.8462,-10.401972,19.70799,52.78129162656864
129144.75300601202,69.887276,-78.116486,0.19861138,104.81629729278094
129162.83533734136,-66.65924,-23.56775,-36.563637,79.59769260542588
129180.91766867068,-78.40124,78.36774,12.311512,111.53398779731381
129199.0,-31.940536,64.912415,22.770914,75.84414272371279
129216.75300601202,78.355774,-45.393467,37.34133,97.95187130212503
129234.83533734136,76.75014,-26.475136,15.118393,82.58379152800231
129252.91766867068,29.564379,34.766563,20.30861,49.95203748217594
129271.0,72.96695,-66.02033,13.01742,99.25881819298374
129288.75300601202,-25.74769,-61.7466,-38.633503,77.25369703740468
129306.83533734136,-78.40124,75.19235,0.5240469,108.63203283200357
129324.91766867068,-65.740364,75.93415,26.202343,103.7995827244245
129343.0,77.17847,-38.109455,24.630203,89.5292895747483
129361.75300601202,77.872406,-33.230316,19.349054,86.84901501101557
129379.83533734136,24.249731,46.822033,18.576145,55.90550411977764
129397.91766867068,75.673325,-60.63629,22.617767,99.57296402932884
129416.0,-6.2167754,-74.75684,-22.297117,78.25851295336076
129433.75300601202,-78.40124,65.223495,-7.025578,102.22630522417754
129451.83533734136,-70.82769,77.295715,21.966896,107.11551590676368
129469.91766867068,76.10883,-31.148485,29.16955,87.25620189400078
129488.0,78.29595,-23.338032,19.523737,84.00057041759118
129505.75300601202,46.912964,18.28421,19.791742,54.10038426835765
129523.83533734136,72.11028,-69.32494,14.989177,101.1460093865266
129541.91766867068,-12.689591,-61.485775,-37.970665,73.3709591571497
129560.0,-78.40124,71.01194,-3.9650488,105.85448345765795
129577.75300601202,-70.61951,77.67858,29.820421,109.13447893344129
129595.83533734136,59.717415,-15.94634,20.526365,65.12900332256781
129613.91766867068,77.34118,-40.275036,20.715405,89.62624979830251
129632.0,26.448812,36.250164,12.278011,46.52272133435834
129650.75300601202,55.91987,-17.365334,21.873573,62.50631873286721
129668.83533734136,75.61111,-77.21915,3.8884757,108.14322598029008
129686.91766867068,-36.422455,-33.689754,-33.36671,59.79073581276318
129705.0,-78.40124,65.149315,7.5137315,102.21371649422066
129722.75300601202,-77.69772,77.994446,25.613688,113.031545654329
129740.83533734136,14.871923,29.547628,5.5395823,33.53987755199452
129758.91766867068,61.201015,3.2304258,31.562458,68.93612001615186
129777.0,68.39649,-7.9540267,33.864437,76.7342588313159
129794.75300601202,78.355774,-52.11275,17.865452,95.78382121666414
129812.83533734136,62.210823,-67.03971,2.3259068,91.48726172349741
129830.91766867068,-22.79245,-15.135143,-22.892952,35.67429861829456
129849.0,-75.673325,15.386399,-6.063629,77.45941509844022
129866.75300601202,-78.40124,17.473015,9.54531,80.88988583082514
129884.83533734136,-54.132366,66.91289,-7.4778376,86.39193221639408
129902.91766867068,-24.201872,76.80517,10.066964,81.15484280811947
129921.0,62.85691,25.69744,53.20392,86.26706590969754
129939.75300601202,78.355774,-76.32898,34.88142,114.81486823663509
129957.83533734136,74.050934,-76.08491,-9.511809,106.59703967011906
129975.91766867068,-67.89638,17.23133,-0.8351249,70.05379778621499
129994.0,-78.33663,29.71992,15.764479,85.25502942762228
130011.75300601202,-37.24322,-22.41437,-4.3885937,43.68891361809057
130029.83533734136,-44.783276,49.38484,-11.485959,67.6485881986273
130047.91766867068,-40.578934,78.36774,15.43665,89.59041645458768
130066.0,71.083725,0.5168682,51.62699,87.8550465771426
130083.75300601202,78.355774,-78.40124,33.649075,115.83886222262502
130101.83533734136,45.778725,-56.23334,-16.948969,74.46574877313856
130119.91766867068,-78.40124,54.007935,3.201711,95.25682353421904
130138.0,-63.43121,6.7216787,8.691042,64.37572195832756
130155.75300601202,-12.249296,-20.050177,-17.762556,29.454426592281184
130173.83533734136,-60.98805,73.42399,-13.113136,96.3461410025181
130191.91766867068,-6.389065,75.90544,33.627537,83.26624296708837
130210.0,78.355774,-59.040222,48.94215,109.63899479460244
130228.75300601202,78.355774,-78.40124,2.7422726,110.877868899476
130246.83533734136,-28.410997,-4.2569833,-20.657976,35.384440503801436
130264.91766867068,-78.40124,43.254208,9.748708,90.07062923569552
130283.0,-39.72706,-16.743177,3.594148,43.26073476193895
130301.75300601202,-34.94842,15.453401,-3.412287,38.36461084819667
130319.83533734136,-56.69517,78.36056,4.424487,96.82094685581045
130337.91766867068,25.616081,60.6004,52.105576,83.92605755217112
130356.0,78.355774,-61.212982,47.84141,110.34245327732884
130373.75300601202,78.355774,-78.40124,1.0241647,110.84868364581243
130391.83533734136,15.39597,-36.321953,-24.484236,46.43057155020607
130409.91766867068,-78.40124,46.896214,6.58289,91.59336090472658
130428.0,-77.9107,27.288723,19.241373,84.76427320744193
130445.75300601202,-26.556494,-25.912802,0.8255533,37.11336981889924
130463.83533734136,-31.701246,17.875023,-5.6424775,36.828290722500974
130481.91766867068,-60.162495,76.3218,3.1825678,97.23513612715632
130500.0,-20.978624,75.053566,33.42414,84.7957166901096
130518.75300601202,59.669556,12.967169,45.168533,75.95261521819894
130536.83533734136,78.355774,-70.13614,36.951286,111.46346033697532
130554.91766867068,78.355774,-78.40124,8.128709,111.1416108515769
130573.0,65.07753,-65.67336,-23.268639,95.33889387601906
130590.75300601202,-19.964033,-11.177274,-18.312925,29.30626707296223
130608.83533734136,-74.967415,28.209993,-6.2550616,80.3432810660734
130626.91766867068,-78.40124,22.924059,11.160523,82.44285407606053
130645.0,-77.4034,1.2730271,14.934139,78.84120393061394
130662.75300601202,-61.68678,13.833402,6.247883,63.526828030712295
130680.83533734136,-38.45164,49.83949,-4.9820347,63.145261515823215
130698.91766867068,-13.472073,41.58874,20.34929,48.22046919316556
130717.0,57.011036,7.705164,35.28343,67.48739297546685
130735.75300601202,78.355774,-16.161701,20.79437,82.66337594152188
130753.83533734136,78.355774,-22.699125,13.500788,82.68705383266261
130771.91766867068,76.83149,-70.349106,2.342657,104.19962865787473
130790.0,2.9552414,-65.75951,-37.34851,75.68327296300336
130807.75300601202,-78.40124,46.14484,-4.0464077,91.06302272293524
130825.83533734136,-78.40124,78.36774,37.29826,116.95904114378162
130843.91766867068,55.50829,6.3364205,15.989412,58.11180413291834
130862.0,78.355774,-59.63127,37.86777,105.49636811627629
130879.75300601202,50.897156,28.597645,4.168446,58.52966538849575
130897.83533734136,30.674688,27.015932,14.240196,43.284873198894594
130915.91766867068,78.355774,-74.06529,8.49961,108.155156474739
130934.0,-7.291191,-71.85424,-32.007538,78.99794782776023
130951.75300601202,-78.40124,61.99307,-11.957362,100.66217595284509
130969.83533734136,-78.40124,78.36774,35.297787,116.33654143622532
130987.91766867068,43.89072,12.081793,28.652681,53.78978669506889
131006.0,78.355774,-77.173676,36.886677,116.00013158007357
131024.75300601202,62.804264,-4.972463,4.2856984,63.14640271340742
131042.83533734136,8.317748,65.51782,8.621648,66.60407257502959
131060.91766867068,70.68411,-29.004438,20.461758,79.0960452275492
131079.0,76.338554,-78.40124,-0.48336744,109.42834598233938
131096.75300601203,-55.42693,-40.873264,-34.57513,77.05976832144965
131114.83533734136,-78.40124,76.02747,-7.5209103,109.46914962618074
131132.91766867068,-72.399826,77.55415,34.273624,111.49467381514756
131151.0,67.75758,-9.121766,18.81783,70.91126136463839
131168.75300601203,78.355774,-60.37307,27.930023,102.7843426069579
131186.83533734136,43.821327,27.023111,8.411072,52.166113142043024
131204.91766867068,35.254715,23.742434,14.4077,44.87961587698341
131223.0,77.879585,-67.477615,16.673784,104.38617417426077
131240.75300601203,20.847015,-73.87865,-30.794334,82.70999919439173
131258.83533734136,-78.40124,41.598312,-17.85588,90.53179797928098
131276.91766867068,-78.40124,78.36774,26.333954,113.93741369506031
131295.0,11.64389,43.376244,20.61251,49.4161338671869
131313.75300601203,78.355774,-48.87515,34.163548,98.46601250487336
131331.83533734136,68.719536,-18.602467,17.037506,73.20316261775459
131349.91766867068,9.463951,42.486084,11.270597,44.9628742288776
131368.0,58.535316,-9.999963,18.724506,62.2654768243628
131386.75300601203,78.355774,-76.82432,12.117686,110.40127615474411
131404.83533734136,13.912368,-67.04689,-23.661076,72.44781542267027
131422.91766867068,-78.40124,37.2504,-10.516831,87.43540740443864
131441.0,-78.40124,78.12605,20.205715,112.51091076336253
131458.75300601203,-55.88876,67.66187,13.9458685,88.86039272056922
131476.83533734136,27.863022,12.426372,1.8377534,30.56370484110327
131494.91766867068,48.020878,14.14448,28.614395,57.661552524861044
131513.0,60.53579,9.253376,34.125263,70.10520960057565
131530.75300601203,78.355774,-49.47816,23.25428,95.543064502051
131548.83533734136,77.87002,-75.07989,7.425194,108.42445943213245
131566.91766867068,15.771657,-37.26715,-13.263889,42.58540107891987
131585.0,-70.9258,23.012598,-14.055943,75.87897143457371
131603.75300601203,-77.62594,17.80563,6.750394,79.92743483770599
131621.83533734136,-45.639935,-9.480701,0.598227,46.61807840097182
131639.91766867068,-53.333134,28.789078,-13.378749,62.0662961610973
131658.0,-73.21342,78.36056,-4.1995535,107.32296343844295
131675.75300601203,-19.152836,76.637665,28.291353,83.90806563177183
131693.83533734136,73.19906,-11.064807,56.977535,93.41826284783438
131711.91766867068,78.355774,-78.40124,40.07403,117.86564229289881
131730.0,78.355774,-77.95855,-9.514202,110.93999674120413
131747.75300601203,-27.484941,-5.173467,-15.209324,31.835676199989
131765.83533734136,-78.40124,51.770565,2.0746512,93.97473070756035
131783.91766867068,-46.348236,-0.33979294,4.7475295,46.5919893963237
131802.0,-18.973368,-26.884323,-14.386164,35.91263330732862
131820.75300601203,-67.39386,57.33408,-2.2517266,88.5110126923602
131838.83533734136,-62.622406,78.36774,12.440729,101.08333267155311
131856.91766867068,58.57839,31.952501,53.72557,85.66695376264992
131875.0,78.355774,-77.95137,48.238636,120.59440039718457
131892.75300601203,78.355774,-78.40124,-4.50106,110.93530228831702
131910.83533734136,-50.313286,14.067906,-17.989883,55.25367515103697
131928.91766867068,-78.40124,46.386524,7.0662575,91.3695574980884
131947.0,-38.710075,-24.711561,4.3024487,46.12637226553242
131964.75300601203,-51.294376,39.459053,-8.25314,65.23989724659125
131982.83533734136,-53.438423,78.36774,13.515145,95.81141304565732
132000.91766867068,62.14861,16.343563,56.10173,85.3051339923921
132019.0,78.35817,-78.40124,34.326267,116.03900139798597
132036.75300601203,67.56137,-69.927956,-21.210737,99.52061651084163
132054.83533734136,-65.40057,24.225801,-14.769029,71.28988853981568
132072.91766867068,-78.40124,27.224115,2.6393776,83.0353730959656
132091.0,-41.227413,-22.012362,1.7252867,46.76772688178045
132109.75300601203,-53.76625,49.368088,-7.348621,73.36225175415409
132127.83533734136,-40.92112,75.84801,17.949203,88.03199742905821
132145.91766867068,64.84063,20.782406,58.903824,90.03263952461192
132164.0,78.355774,-77.09711,36.8125,115.9256306678604
132181.75300601203,75.496254,-75.46514,-21.167665,108.82436200044702
132199.83533734136,-40.79669,5.565904,-14.869531,43.77730181787449
132217.91766867068,-78.40124,34.47702,4.635063,85.7723915408214
132236.0,-63.053127,-7.8272023,15.857802,65.48611917494011
132253.75300601203,-35.156605,-4.735565,-5.1208234,35.841809152011805
132271.83533734136,-54.55352,51.868675,-4.469952,75.40839781833539
132289.91766867068,-36.18077,71.856636,21.919039,83.38386250176299
132308.0,53.548496,32.80677,33.972115,71.39909088544574
132325.75300601203,78.355774,-46.65692,15.372042,92.48132340248618
132343.83533734136,78.355774,-67.77434,-1.742037,103.61478260597781
132361.91766867068,25.084856,-34.651703,-5.6879425,43.15487470986622
132380.0,-39.114475,-20.693869,-5.1686816,44.55214515819597
132398.75300601203,-78.40124,-6.793466,10.076536,79.33752070483456
132416.83533734136,-78.40124,69.83463,13.350035,105.83880864444633
132434.91766867068,-27.315046,53.170418,17.796057,62.36910078736176
132453.0,78.355774,-41.43799,35.39829,95.44513224519768
132470.75300601203,78.35817,-15.647226,7.391693,80.24634329768693
132488.83533734136,49.604984,24.926924,-3.2974274,55.61365844107275
132506.91766867068,78.355774,-73.692,-15.020284,108.60822765601017
132525.0,-61.363735,-42.59137,-28.556965,79.96895035973868
132543.75300601203,-78.40124,78.36774,24.567987,113.5422524502547
132561.83533734136,16.001377,23.184887,27.542372,39.39752919264458
132579.91766867068,78.35817,-77.57569,45.630363,119.33197606776135
132598.0,15.955912,65.04642,-4.300056,67.11272877905711
132615.75300601203,62.493187,17.980312,1.6774286,65.05001005182406
132633.83533734136,76.01551,-78.40124,-9.52856,109.61708648642009
132651.91766867068,-77.953766,29.313124,-38.109455,91.5880965661977
132670.0,-78.40124,78.36774,40.770367,118.11214980500478
132688.75300601203,35.541862,-10.390007,38.2961,53.270699968154105
132706.83533734136,78.31749,-52.490833,35.824226,100.85778084725575
132724.91766867068,-26.367455,75.740326,24.209051,83.77301365048235
132743.0,67.59726,-11.9741125,12.64652,69.8047519713426
132760.75300601203,78.355774,-78.40124,7.97317,111.1303432574811
132778.83533734136,-23.799864,-32.18222,-42.687088,58.51765795438707
132796.91766867068,-78.40124,77.04685,6.6833925,110.12556135506941
132815.0,-65.515434,44.97471,8.006671,79.8692895441965
132832.75300601203,11.957362,5.005964,-3.4218585,13.406986878577984
132850.83533734136,-42.990986,66.41756,16.673784,80.85500742987072
132868.91766867068,28.219564,58.482674,42.931164,77.84376527979147
132887.0,78.355774,-69.90881,41.906998,113.06221966743435
132904.75300601203,78.35817,-78.40124,4.113409,110.92194270245983
132922.83533734136,-12.689591,-17.001612,-17.492159,27.496475352799422
132940.91766867068,-78.14999,31.528957,3.2304258,84.33226972729511
132959.0,-68.224205,2.0196145,10.937983,69.1249626598013
132977.75300601203,-29.380125,-30.844585,-8.336892,43.40603572151589
132995.83533734136,-49.717453,13.541467,-17.19065,54.32048332573817
133013.91766867068,-78.40124,75.75708,-9.576418,109.44221025442937
133032.0,-76.61374,78.36774,6.506317,109.78843286248187
133049.75300601203,3.5534685,52.416653,35.52272,63.4192107038656
133067.83533734136,77.95855,-42.8522,42.75409,98.70034840197172
133085.91766867068,78.35817,-78.082985,29.157585,114.39895154804239
133104.0,75.35507,-48.080704,-1.3567789,89.3978832010244
133121.75300601203,6.200025,1.8616825,18.375141,19.482093791513073
133139.83533734136,43.641857,-64.74252,-3.4745026,78.15547163619613
133157.91766867068,-40.131462,-40.98573,-46.924927,74.11014154517365
133176.0,-78.40124,78.36774,-12.584304,111.56442897899677
133194.75300601203,-49.41116,68.449135,54.73538,100.61167247659799
133212.83533734136,78.35817,-71.10766,52.435795,118.0923990513637
133230.91766867068,62.74205,0.043072347,3.2136755,62.82431379369675
133249.0,20.30861,64.95071,-6.384279,68.35051856413412
133266.75300601203,78.35817,-77.377075,2.938491,110.16283071282076
133284.83533734136,-19.35384,-42.450188,-52.163002,69.98262899915198
133302.91766867068,-78.40124,78.36774,4.1732316,110.93093783175385
133321.0,-33.18724,46.609062,22.780485,61.58529090759147
133338.75300601203,78.35817,-46.362595,17.138008,92.64558456338321
133356.83533734136,-56.58988,78.231346,20.928373,98.79552020113688
133374.91766867068,73.68003,-13.697006,32.167862,81.55443666543214
133393.0,78.35817,-78.40124,27.03029,114.09379394502841
133410.75300601203,-54.084507,-0.80880296,-31.488277,62.58833476047979
133428.83533734136,-78.40124,77.54219,23.180101,112.68035652190626
133446.91766867068,-12.493373,-11.466816,-1.6176059,17.03493137475757
133465.0,-17.604626,23.093956,-20.56226,35.58173965164452
133483.75300601203,-59.521194,78.348595,6.9896846,98.6414241810566
133501.83533734136,33.22074,40.320503,46.391308,69.86783227116376
133519.91766867068,78.35817,-68.39171,51.55042,116.08132754517155
133538.0,78.35817,-78.40124,13.574967,111.6737971430075
133555.75300601203,51.787315,-55.54897,-19.782171,78.47896758013172
133573.83533734136,-39.260445,4.78103,-7.4778376,40.25119680991981
133591.91766867068,-78.40124,33.83572,19.571596,87.60512400221357
133610.0,-62.162968,5.2428617,29.540451,69.02434668041235
133627.75300601203,-1.2634555,-43.77825,6.7264647,44.31000812709615
133645.83533734136,9.286877,-51.07184,-16.879574,54.58478674337938
133663.91766867068,-45.522682,7.628591,-20.861372,50.65280662353064
133682.0,-78.40124,68.367775,-8.731722,104.38941546475634
133700.75300601203,-78.40124,78.36774,0.047858164,110.85242169952383
133718.83533734136,-61.502525,76.83867,18.772364,100.19552604229901
133736.91766867068,46.374557,9.581204,33.38107,57.936990268573375
133755.0,78.35817,-67.12347,46.64496,113.23124711841426
133773.75300601203,78.35817,-57.94427,10.770479,98.0486840782233
133791.83533734136,34.54163,23.938652,11.086343,43.463666018269244
133809.91766867068,78.355774,-52.71816,12.579518,95.2736898940993
133828.0,44.740204,-78.40124,-22.665625,93.07078405246108
133845.75300601203,-78.40124,56.271626,-42.533943,105.46272627496752
133863.83533734136,-78.40124,78.36774,60.28214,126.18317442997224
133881.91766867068,70.27732,-44.213764,46.42481,95.12634554615349
133900.0,76.82432,-48.272137,28.786684,95.18848948126566
133917.75300601203,-45.333645,78.36774,6.405815,90.76164667692984
133935.83533734136,63.620247,-19.70799,9.645813,67.29771472057635
133953.91766867068,78.35817,-78.40124,12.356977,111.53229182557412
133972.0,-14.319162,-33.682575,-52.888054,64.31718677709547
133989.75300601203,-78.40124,74.42184,3.7018287,108.16223110793965
134007.83533734136,-77.29811,68.25531,35.44136,109.04070410364103
134025.91766867068,42.507618,-19.514166,-1.9238981,46.812409109216574
134044.0,32.416725,-10.751336,0.61497736,34.1586516517241
134062.75300601203,-44.510483,55.754757,6.5661397,71.64419177841462
134080.83533734136,-20.87573,75.02245,20.82548,80.60933397731183
134098.91766867068,64.25437,2.371372,38.73161,75.06254114038096
134117.0,78.35817,-70.552505,39.499733,112.59612637473464
134134.75300601203,78.35817,-78.40124,17.891773,112.2803312266669
134152.83533734136,58.93254,-70.39935,-12.816416,92.70044913785023
134170.91766867068,-25.905622,-33.74479,-13.378749,44.59599789393646
134189.0,-74.084435,-2.7733805,-8.375178,74.60790008570599
134206.75300601203,-78.40124,57.618835,7.2457256,97.56631139776331
134224.83533734136,-78.40124,78.36774,17.044683,112.15515291245289
134242.91766867068,-9.897068,39.207798,8.513967,41.32421823921799
134261.0,76.07533,-51.935677,42.15347,101.29997735981053
134278.75300601203,78.35817,-61.172302,19.89703,101.38020092971311
134296.83533734136,40.263073,7.8630958,0.019143265,41.02369668164854
134314.91766867068,-11.966933,26.197557,24.197086,37.616730972881385
134333.0,29.96878,-25.513186,20.31579,44.29200557530778
134351.75300601203,49.87299,-58.3726,-0.83033913,76.78128043586476
134369.83533734136,-6.3938503,-42.809124,-25.668726,50.32281702934824
134387.91766867068,-76.50366,28.836935,-17.305511,83.56948919648214
134406.0,-78.40124,77.45365,-12.852309,110.95496464102715
134423.75300601203,-78.40124,78.36774,-13.7329,111.69981937610822
134441.83533734136,-42.531548,75.94851,10.339756,87.65853809319398
134459.91766867068,44.50091,37.544727,43.933792,72.93912253264288
134478.0,78.35817,-35.304966,57.70019,103.51693270207612
134495.75300601203,78.35817,-78.40124,31.643816,115.2739707407026
134513.83533734136,78.35817,-78.28399,-6.2072034,110.9365371287475
134531.91766867068,18.786722,-36.836426,-24.955639,48.29748566806642
134550.0,-76.44384,45.376717,-1.7324655,88.91405151241494
134568.75300601203,-78.40124,73.91215,21.816143,109.93500100767066
134586.83533734136,-71.42352,38.537785,21.167665,83.87222498210507
134604.91766867068,-7.418015,-23.761578,3.1586387,25.09216080825736
134623.0,4.730779,-13.931511,0.64369226,14.726900842184886
134640.75300601203,-53.713608,55.223534,12.435944,78.0348838340774
134658.83533734136,-62.78273,78.36774,20.923588,102.57178166413141
134676.91766867068,46.415237,29.94246,24.510557,60.42923581403308
134695.0,78.35817,-76.34334,41.557636,117.02711428559194
134712.75300601203,78.35817,-78.40124,16.501493,112.06719640695732
134730.83533734136,30.562222,-64.07729,-38.169277,80.60299134662506
134748.91766867068,-76.094475,32.2899,-33.38346,89.14853991573405
134767.0,-78.40124,78.36774,20.775229,112.78238890113848
134784.75300601203,-71.18423,73.86189,37.047005,109.06536560492073
134802.83533734136,26.542137,13.146637,23.04849,37.53068067883446
134820.91766867068,78.35817,-63.76143,34.091763,106.6197498864163
134839.0,78.35817,-65.02249,28.27221,105.6751856862958
134857.75300601203,45.01778,0.0071787243,-1.1150951,45.03158896535327
134875.83533734136,-3.3428926,52.74209,2.2469406,52.89566835349718
134893.91766867068,-7.9875274,49.983063,14.673312,52.70116949249859
134912.0,53.548496,-10.567082,20.320576,58.24114056943353
134930.75300601203,78.35817,-69.923164,14.503416,106.01698328658881
134948.83533734136,59.638447,-77.9777,-24.697205,101.22854336931769
134966.91766867068,-60.877975,-13.656326,-42.945522,75.74259660040303
134985.0,-78.40124,77.846085,-13.208853,111.27102579261339
135002.75300601203,-78.40124,78.36774,0.36611494,110.85301595533832
135020.83533734136,35.10875,46.59231,30.399504,65.78447781311802
135038.91766867068,78.35817,-55.87919,61.224945,114.06568533550318
135057.0,78.35817,-78.40124,8.466109,111.16848582618358
135074.75300601203,17.126043,-34.627773,-11.4046,40.27963397223686
135092.83533734136,-78.40124,14.077478,9.353878,80.20239930336852
135110.91766867068,-78.40124,2.3976939,8.478073,78.89474691872094
135129.0,-61.315876,67.25986,-8.300998,91.39164067168825
135147.75300601203,33.36432,76.046616,33.565323,89.5706233215343
135165.83533734136,78.35817,-75.39814,43.70886,117.19789573071738
135183.91766867068,47.36283,-66.83153,-27.633303,86.44819548399845
135202.0,-78.40124,71.89014,1.2323477,106.37887639757668
135219.75300601203,-46.03955,-4.668564,6.6786065,46.755100671546394
135237.83533734136,-27.851057,40.203247,1.1749178,48.92200810675104
135255.91766867068,20.605331,70.83965,34.27123,81.34711355330907
135274.0,78.35817,-77.59483,39.968742,117.2964653582552
135291.75300601203,62.10075,-73.27084,-27.81277,99.99334637835159
135309.83533734136,-78.40124,46.1592,-9.33952,91.45847588937835
135327.91766867068,-78.40124,71.68195,13.783151,107.12157411478279
135346.0,52.938305,-29.305946,16.494316,62.716545404987
135363.75300601203,56.52049,-13.694613,24.180336,62.98251236758316
135381.83533734136,8.059315,63.921753,3.5510757,64.52560114783407
135399.91766867068,68.81286,-25.721369,25.300217,77.69748712063249
135418.0,78.35817,-78.40124,15.668762,111.94760980878128
135436.75300601203,-28.147778,-53.9529,-43.960114,75.07132906536476
135454.83533734136,-78.40124,70.55729,5.43908,105.61566738381242
135472.91766867068,-77.03249,78.36774,32.414333,114.5696127781821
135491.0,25.249966,10.756122,26.343525,38.042558443218105
135508.75300601203,73.112915,-50.06921,33.76154,94.82755777195216
135526.83533734136,78.35817,-57.645157,14.898246,98.41201484158357
135544.91766867068,63.847572,-25.405506,-9.447201,69.36282716373101
135563.0,11.402207,9.164838,0.3565433,14.633239667341881
135580.75300601203,-14.83603,21.806572,21.579245,34.077825390158175
135598.83533734136,-30.858942,11.943005,37.269543,49.839025925656266
135616.91766867068,-11.12463,-13.807079,27.508871,32.72813479017376
135635.0,11.978898,-32.74695,19.626633,40.013265981591566
135653.75300601203,15.374434,-44.819168,15.295468,49.79038443687299
135671.83533734136,6.5158887,-52.01943,2.390515,52.48040077058209
135689.91766867068,-31.773033,-29.33466,-5.7023,43.61839209123474
135708.0,-60.901905,14.457951,-18.454107,65.25816764907574
135725.75300601203,-72.366325,61.39245,-17.817595,96.55767500614412
135743.83533734136,-78.40124,78.36774,-17.98749,112.30230141339625
135761.91766867068,-67.06843,78.36774,-0.5360114,103.15020253782069
135780.0,12.773343,71.33977,38.499496,82.06541456242432
135797.75300601203,78.35817,-9.136123,58.252956,98.06568427313381
