timestamp,accel_x,accel_y,accel_z,magnitude
971790.8860706063,-1.2108115,-1.718108,9.67692,9.902562308544
971792.0452033768,-1.2060257,-1.7540016,9.624276,9.856860967165918
971793.2043361474,-1.2754201,-1.7851094,9.617098,9.864171832599855
971794.3634689179,-1.2993491,-1.7779307,9.645813,9.893990806981899
971795.5226016884,-1.3472073,-1.7396442,9.607526,9.85626122281887
971796.6817344589,-1.3567789,-1.7898953,9.605133,9.86423611417206
971797.8408672295,-1.3304569,-1.8210031,9.609919,9.87100354774165
971799.0,-1.3376356,-1.8305746,9.60274,9.866756704822134
971799.8860706063,-1.3926725,-1.8640754,9.638634,9.915522133256392
971801.0452033768,-1.40703,-1.8975761,9.629062,9.914603546084694
971802.2043361474,-1.3974583,-1.9143264,9.73435,10.018737704345584
971803.3634689179,-1.4477094,-1.8712541,9.636241,9.9224288873086
971804.5226016884,-1.4979604,-1.720501,9.605133,9.87231426762024
971805.6817344589,-1.4883888,-1.7372513,9.782208,10.046140385968192
971806.8408672295,-1.4166015,-1.7587874,9.856388,10.111798916846844
971808.0,-1.3663505,-1.797074,9.789387,10.04631706079871
971809.8860706063,-1.3567789,-1.7898953,9.748708,10.004093254149089
971811.0452033768,-1.3376356,-1.823396,9.667349,9.928327082595755
971812.2043361474,-1.3759222,-1.8568966,9.684099,9.956053451310183
971813.3634689179,-1.3472073,-1.8521109,9.705635,9.972192990927175
971814.5226016884,-1.380708,-1.8568966,9.7415285,10.012581938774224
971815.6817344589,-1.3328499,-1.8449322,9.748708,10.010872656656405
971816.8408672295,-1.3496002,-1.8521109,9.7415285,10.007452872836877
971818.0,-1.2562767,-1.8927903,9.765458,10.026218440493952
971818.8860706063,-1.2754201,-1.9238981,9.801352,10.069487641313813
971820.0452033768,-1.196454,-1.8903974,9.753493,10.006784208980015
971821.2043361474,-1.14381,-1.8425392,9.70085,9.940308986250711
971822.3634689179,-1.1820966,-1.8162172,9.696064,9.935273241406268
971823.5226016884,-1.2036327,-1.797074,9.686492,9.925035712986089
971824.6817344589,-1.1940612,-1.8018597,9.684099,9.922411701276587
971825.8408672295,-1.2419193,-1.7922882,9.648206,9.89153878615495
971827.0,-1.2084186,-1.7898953,9.645813,9.884619827224366
971827.8860706063,-1.2562767,-1.7827165,9.715207,9.956985302750232
971829.0452033768,-1.2897775,-1.7803236,9.652991,9.900167340318253
971830.2043361474,-1.2802058,-1.6893932,9.69367,9.922712045779615
971831.3634689179,-1.2658484,-1.6463208,9.708028,9.927665989399483
971832.5226016884,-1.222776,-1.6630712,9.731957,9.94846591250603
971833.6817344589,-1.2730271,-1.6798215,9.753493,9.978628361164958
971834.8408672295,-1.301742,-1.6343563,9.715207,9.937348731063164
971836.0,-1.304135,-1.7228938,9.6912775,9.929249252904757
971836.8860706063,-1.3232782,-1.6750357,9.703242,9.935276297186391
971838.0452033768,-1.3400285,-1.665464,9.669742,9.903199334693422
971839.2043361474,-1.3376356,-1.691786,9.645813,9.883982866190753
971840.3634689179,-1.3902797,-1.6223917,9.6003475,9.835227734690093
971841.5226016884,-1.4453164,-1.6774286,9.60274,9.854710635620254
971842.6817344589,-1.4261732,-1.7037506,9.621883,9.875088281584505
971843.8408672295,-1.4261732,-1.5960697,9.66017,9.894457686632267
971845.0,-1.4548881,-1.5841051,9.667349,9.903722786870027
971845.8860706063,-1.4357449,-1.6223917,9.652991,9.893116470161761
971847.0452033768,-1.4501023,-1.6152129,9.67692,9.917383227403876
971848.2043361474,-1.4788172,-1.6080343,9.643419,9.887780571521262
971849.3634689179,-1.4859959,-1.61282,9.648206,9.894303976816802
971850.5226016884,-1.536247,-1.6271775,9.574025,9.832075882647583
971851.6817344589,-1.5434257,-1.6271775,9.56924,9.82854127963691
971852.8408672295,-1.5601761,-1.6295704,9.511809,9.775692282598115
971854.0,-1.5171037,-1.6463208,9.518989,9.77870785917993
971855.8860706063,-1.4501023,-1.7994668,9.566847,9.842024129526228
971857.0452033768,-1.5721406,-1.5817122,9.334735,9.597432837484313
971858.2043361474,-1.8473251,-1.4142087,9.526167,9.806143685676581
971859.3634689179,-1.9621847,-1.3615648,9.794173,10.081163239202217
971860.5226016884,-1.8042527,-1.4477094,9.7917795,10.061318804656073
971861.6817344589,-1.6295704,-1.6056414,9.609919,9.878467855923363
971862.8408672295,-1.6080343,-1.7133222,9.518989,9.80471309387023
971864.0,-1.5769265,-1.7683591,9.56924,9.858201928879073
971864.8860706063,-1.6367491,-1.7731448,9.650599,9.947715876366738
971866.0452033768,-1.5577831,-1.8210031,9.66017,9.952970657334182
971867.2043361474,-1.5027462,-1.8401463,9.686492,9.973590718145703
971868.3634689179,-1.4381378,-1.9119335,9.645813,9.93808022060499
971869.5226016884,-1.4237803,-1.9430413,9.576418,9.87473247976358
971870.6817344589,-1.4548881,-1.9932925,9.581204,9.89390643091463
971871.8408672295,-1.5075321,-1.9741492,9.566847,9.884051781420412
971873.0,-1.536247,-1.7228938,9.425665,9.704204170529001
971873.8860706063,-1.4548881,-1.6774286,9.564454,9.81882102951956
971875.0452033768,-1.3902797,-1.7659662,9.626669,9.885558674113241
971876.2043361474,-1.3759222,-1.7755378,9.624276,9.88293402304486
971877.3634689179,-1.3352427,-1.7635733,9.363449,9.621187090373889
971878.5226016884,-1.3137065,-1.7587874,9.4137,9.666276717358189
971879.6817344589,-1.2921704,-1.8521109,9.466345,9.731993977986216
971880.8408672295,-1.2969562,-1.8114314,9.497452,9.755253640676308
971882.0,-1.2921704,-1.8066456,9.514202,9.770041574294323
971882.8860706063,-1.3065279,-1.8305746,9.60274,9.862587592880663
971884.0452033768,-1.3663505,-1.87604,9.578811,9.855965703276937
971885.2043361474,-1.3639576,-1.8736471,9.54531,9.82262066792952
971886.3634689179,-1.3567789,-1.8808258,9.557275,9.834625569845345
971887.5226016884,-1.3735292,-1.8377534,9.552489,9.82415218314462
971888.6817344589,-1.3232782,-1.8736471,9.578811,9.849631405471712
971889.8408672295,-1.3113136,-1.8545038,9.5907755,9.856049025505081
971891.0,-1.2849916,-1.849718,9.6003475,9.861000568519952
971892.8860706063,-1.3567789,-1.8545038,9.581204,9.852893149593964
971894.0452033768,-1.3974583,-1.8880045,9.559668,9.844018638873209
971895.2043361474,-1.40703,-1.8975761,9.554882,9.842575806673535
971896.3634689179,-1.433352,-1.8210031,9.597955,9.873767792901484
971897.5226016884,-1.4764243,-1.7875023,9.631455,9.906559372615742
971898.6817344589,-1.4716384,-1.7755378,9.696064,9.966539577590579
971899.8408672295,-1.5147108,-1.7587874,9.705635,9.979330272080405
971901.0,-1.5218896,-1.7228938,9.70085,9.96950358459069
971901.8860706063,-1.5171037,-1.7228938,9.755886,10.022338964913736
971903.0452033768,-1.5147108,-1.6511066,9.751101,10.005222262618718
971904.2043361474,-1.5506045,-1.6223917,9.739136,9.99436336992733
971905.3634689179,-1.6032485,-1.6343563,9.715207,9.98132122120869
971906.5226016884,-1.5697477,-1.6176059,9.672134,9.93131072937133
971907.6817344589,-1.6056414,-1.5841051,9.686492,9.945632234267661
971908.8408672295,-1.6582853,-1.5673548,9.684099,9.949285635013206
971910.0,-1.6678569,-1.6080343,9.705635,9.978320084166427
971910.8860706063,-1.6247846,-1.6511066,9.672134,9.94566509163247
971912.0452033768,-1.6415349,-1.665464,9.605133,9.885696086310919
971913.2043361474,-1.6678569,-1.6534995,9.564454,9.84858302262279
971914.3634689179,-1.6032485,-1.6726427,9.547704,9.824804884893721
971915.5226016884,-1.6439278,-1.6247846,9.487881,9.76536274176085
971916.6817344589,-1.6798215,-1.6678569,9.435237,9.727653579199297
971917.8408672295,-1.6678569,-1.6941789,9.483095,9.776557654057374
971919.0,-1.718108,-1.6223917,9.456773,9.747543562427506
971919.8860706063,-1.7133222,-1.5697477,9.456773,9.73807662612064
971921.0452033768,-1.7252867,-1.5577831,9.485488,9.766155076691467
971922.2043361474,-1.715715,-1.5936768,9.557275,9.839968959793941
971923.3634689179,-1.6893932,-1.6152129,9.571632,9.852872740473035
971924.5226016884,-1.7085364,-1.5434257,9.588383,9.860950667974892
971925.6817344589,-1.6989647,-1.562569,9.619491,9.892558315758775
971926.8408672295,-1.6630712,-1.588891,9.60274,9.8743605329029
971928.0,-1.6870002,-1.6176059,9.54531,9.827286579652334
971929.8860706063,-1.6582853,-1.6630712,9.5907755,9.874142527018018
971931.0452033768,-1.7109293,-1.6534995,9.566847,9.858290987159373
971932.2043361474,-1.6702498,-1.6534995,9.523774,9.809488579634326
971933.3634689179,-1.6822144,-1.6558924,9.5405245,9.828195798977825
971934.5226016884,-1.6870002,-1.6032485,9.578811,9.857484243014204
971935.6817344589,-1.6798215,-1.5697477,9.657777,9.927666628933837
971936.8408672295,-1.6487137,-1.61282,9.6410265,9.913063965831652
971938.0,-1.6176059,-1.6319634,9.633848,9.904089088541076
971938.8860706063,-1.5649619,-1.6080343,9.669742,9.926670660649123
971940.0452033768,-1.5553902,-1.6295704,9.6912775,9.949653157010975
971941.2043361474,-1.5506045,-1.5841051,9.638634,9.890249171240443
971942.3634689179,-1.5434257,-1.5673548,9.650599,9.898122297653456
971943.5226016884,-1.5218896,-1.5171037,9.681706,9.917317311731932
971944.6817344589,-1.5314612,-1.4955676,9.66017,9.894492421654343
971945.8408672295,-1.5290682,-1.5242825,9.746315,9.982591987018326
971947.0,-1.483603,-1.4548881,9.782208,10.000468519044228
971948.8860706063,-1.4668527,-1.4955676,9.873138,10.092929864846534
971950.0452033768,-1.4548881,-1.4668527,9.913818,10.126803225309697
971951.2043361474,-1.4046371,-1.4237803,9.916211,10.115898196496715
971952.3634689179,-1.3639576,-1.3950654,9.889889,10.080500594573463
971953.5226016884,-1.3256711,-1.4046371,9.775029,9.96401531506815
971954.6817344589,-1.3232782,-1.4118158,9.662563,9.85441082849167
971955.8408672295,-1.3496002,-1.3974583,9.638634,9.832475567527993
971957.0,-1.3711363,-1.3902797,9.557275,9.754711570468642
971957.8860706063,-1.3591717,-1.4285661,9.605133,9.805443832883808
971959.0452033768,-1.2993491,-1.4788172,9.5907755,9.790719232318272
971960.2043361474,-1.5434257,-1.3352427,9.6410265,9.85466528772165
971961.3634689179,-1.8688612,-1.1462029,9.796566,10.038880847245368
971962.5226016884,-1.899969,-1.0863802,10.007142,10.243680742197945
971963.6817344589,-1.6606783,-1.196454,9.796566,10.008099718855867
971964.8408672295,-1.4955676,-1.3878866,9.533346,9.749237796686739
971966.0,-1.4261732,-1.5075321,9.478309,9.702832809463928
971966.8860706063,-1.4907818,-1.5314612,9.478309,9.716282482606076
971968.0452033768,-1.6606783,-1.3783151,9.461558,9.704570300551328
971969.2043361474,-1.7276796,-1.4213874,9.593168,9.850588369095469
971970.3634689179,-1.6487137,-1.5314612,9.674527,9.932779215577185
971971.5226016884,-1.5673548,-1.61282,9.588383,9.848597767000744
971972.6817344589,-1.5841051,-1.5075321,9.514202,9.762278509506908
971973.8408672295,-1.6463208,-1.4237803,9.655384,9.897674611070862
971975.0,-1.588891,-1.4405307,9.650599,9.886038861259069
971975.8860706063,-1.5171037,-1.483603,9.609919,9.841403593224072
971977.0452033768,-1.5434257,-1.4548881,9.530953,9.764114264138406
971978.2043361474,-1.5817122,-1.4429235,9.468738,9.707772196705333
971979.3634689179,-1.5936768,-1.3854938,9.435237,9.668665681409493
971980.5226016884,-1.6295704,-1.3328499,9.394557,9.62754848186885
971981.6817344589,-1.6893932,-1.3615648,9.337128,9.585920267621116
971982.8408672295,-1.7396442,-1.4261732,9.320377,9.588000801059671
971984.0,-1.8018597,-1.4453164,9.227054,9.511790756398558
971985.8860706063,-1.8880045,-1.5003533,9.617098,9.9148471979373
971987.0452033768,-1.9382555,-1.6199988,10.016713,10.330332512540469
971988.2043361474,-1.8066456,-1.7563945,10.205753,10.512196928360817
971989.3634689179,-1.639142,-1.7994668,10.165073,10.452443559082022
971990.5226016884,-1.4046371,-1.74443,9.885103,10.135645155993052
971991.6817344589,-1.2706342,-1.5912839,9.56206,9.776486442695498
971992.8408672295,-1.3639576,-1.5218896,9.329948,9.551149562847915
971994.0,-1.483603,-1.4883888,9.260554,9.496011766446506
971994.8860706063,-1.5649619,-1.5123179,9.253376,9.505849703024344
971996.0452033768,-1.6750357,-1.4118158,9.380199,9.632606175329972
971997.2043361474,-1.7252867,-1.3854938,9.533346,9.786771338023145
971998.3634689179,-1.7994668,-1.40703,9.686492,9.952182748084272
971999.5226016884,-1.8210031,-1.4405307,9.810924,10.081934869935834
972000.6817344589,-1.7324655,-1.4285661,9.870746,10.122937538445818
972001.8408672295,-1.6032485,-1.4524952,9.82528,10.060629957272818
972003.0,-1.562569,-1.5697477,9.6912775,9.941156336333442
972003.8860706063,-1.5506045,-1.6367491,9.564454,9.82660176510105
972005.0452033768,-1.509925,-1.5769265,9.597955,9.84313521567454
972006.2043361474,-1.4716384,-1.562569,9.6912775,9.92613726693933
972007.3634689179,-1.4046371,-1.4907818,9.777423,9.989666474854737
972008.5226016884,-1.4357449,-1.3519931,9.746315,9.943837530830269
972009.6817344589,-1.4788172,-1.3184924,9.712814,9.912823932587001
972010.8408672295,-1.5266753,-1.2586696,9.6912775,9.891200443606452
972012.0,-1.6080343,-1.2155973,9.770244,9.97602721153465
972012.8860706063,-1.7324655,-1.2825987,9.846817,10.079995097489926
972014.0452033768,-1.74443,-1.3902797,9.928176,10.175686333417913
972015.2043361474,-1.6798215,-1.4931747,10.023892,10.272768944361902
972016.3634689179,-1.6678569,-1.5338541,10.078929,10.330501673491245
972017.5226016884,-1.5960697,-1.5553902,10.031071,10.27565387547455
972018.6817344589,-1.4931747,-1.6008555,9.935354,10.173670336801578
972019.8408672295,-1.3974583,-1.61282,9.801352,10.03098096302365
972021.0,-1.3735292,-1.5697477,9.633848,9.85706434959273
972021.8860706063,-1.3448143,-1.5912839,9.557275,9.781728649758627
972023.0452033768,-1.3759222,-1.5841051,9.530953,9.759181110959457
972024.2043361474,-1.430959,-1.5912839,9.487881,9.726238429127738
972025.3634689179,-1.4357449,-1.61282,9.578811,9.819173689470873
972026.5226016884,-1.4931747,-1.5027462,9.581204,9.812608568365015
972027.6817344589,-1.509925,-1.5075321,9.597955,9.832256440928523
972028.8408672295,-1.5553902,-1.5529974,9.6003475,9.848741631265339
972030.0,-1.5266753,-1.5577831,9.60274,9.847336754974704
972031.8860706063,-1.5171037,-1.6104271,9.597955,9.849660870456054
972033.0452033768,-1.5051392,-1.6678569,9.583597,9.843399926278686
972034.2043361474,-1.4596739,-1.7085364,9.497452,9.759679247637708
972035.3634689179,-1.3974583,-1.7611804,9.466345,9.72966257177545
972036.5226016884,-1.380708,-1.6846073,9.502238,9.748681107981803
972037.6817344589,-1.4501023,-1.5960697,9.473523,9.71585679182502
972038.8408672295,-1.6223917,-1.5242825,9.504631,9.761844211735616
972040.0,-1.6846073,-1.5075321,9.502238,9.767450117425104
972040.8860706063,-1.797074,-1.5242825,9.5500965,9.836526585161781
972042.0452033768,-1.7898953,-1.5194967,9.597955,9.880958232291947
972043.2043361474,-1.7611804,-1.5194967,9.54531,9.824640940958355
972044.3634689179,-1.74443,-1.6104271,9.5500965,9.84077510304075
972045.5226016884,-1.746823,-1.665464,9.566847,9.866596295077345
972046.6817344589,-1.7276796,-1.6487137,9.578811,9.87201873167514
972047.8408672295,-1.6774286,-1.6104271,9.574025,9.85237011348728
972049.0,-1.6630712,-1.588891,9.552489,9.825498792492493
972049.8860706063,-1.7563945,-1.6080343,9.5405245,9.833224480540805
972051.0452033768,-1.8090385,-1.6534995,9.574025,9.882744335032022
972052.2043361474,-1.8377534,-1.5721406,9.581204,9.88172220389725
972053.3634689179,-1.8138243,-1.588891,9.552489,9.852135773337297
972054.5226016884,-1.8210031,-1.5984626,9.60274,9.903724071348535
972055.6817344589,-1.8305746,-1.6008555,9.605133,9.908194671368463
972056.8408672295,-1.8640754,-1.5817122,9.731957,10.034319988437831
972058.0,-1.8880045,-1.6176059,9.705635,10.019009960717678
972058.8860706063,-1.8401463,-1.5458187,9.763065,10.054508046289405
972060.0452033768,-1.691786,-1.5434257,9.710421,9.976802030633738
972061.2043361474,-1.6319634,-1.509925,9.5907755,9.845108061162398
972062.3634689179,-1.6056414,-1.4405307,9.609919,9.849048491585238
972063.5226016884,-1.6487137,-1.3687434,9.688885,9.923014053342676
972064.6817344589,-1.6798215,-1.2706342,9.794173,10.01809045157813
972065.8408672295,-1.6726427,-1.1629534,9.839638,10.048316783595094
972067.0,-1.7587874,-1.1103094,9.779816,9.998545948085807
972068.8860706063,-1.8568966,-1.0887731,9.73435,9.969506596059563
972070.0452033768,-1.926291,-1.0600582,9.657777,9.904896616613282
972071.2043361474,-1.952613,-1.0433079,9.698457,9.947927275710272
972072.3634689179,-1.9765421,-1.0600582,9.719993,9.975405053455658
972073.5226016884,-1.9621847,-1.1031306,9.667349,9.925961041902767
972074.6817344589,-1.902362,-1.1629534,9.633848,9.8885018620982
972075.8408672295,-1.9167194,-1.2371335,9.60274,9.870001421618875
972077.0,-1.9837208,-1.225169,9.552489,9.832915813024874
972077.8860706063,-2.0626867,-1.2395264,9.533346,9.832384658584603
972079.0452033768,-2.112938,-1.2299547,9.516596,9.825624406780065
972080.2043361474,-2.0961876,-1.2108115,9.483095,9.787193556988184
972081.3634689179,-2.084223,-1.2036327,9.43045,9.732733654669602
972082.5226016884,-2.108152,-1.225169,9.468738,9.777645076720109
972083.6817344589,-2.132081,-1.225169,9.492666,9.805993894383068
972084.8408672295,-2.1440456,-1.2323477,9.495059,9.811817252785318
972086.0,-2.0531151,-1.2395264,9.581204,9.876799957464005
972086.8860706063,-1.9741492,-1.2490981,9.518989,9.80146227403877
972088.0452033768,-1.9047549,-1.2897775,9.478309,9.75345880844643
972089.2043361474,-1.8975761,-1.301742,9.478309,9.753648998674096
972090.3634689179,-1.8975761,-1.3089207,9.514202,9.78948967776072
972091.5226016884,-1.8018597,-1.3208853,9.595561,9.852219407776158
972092.6817344589,-1.7827165,-1.3567789,9.657777,9.914211198304505
972093.8408672295,-1.797074,-1.304135,9.655384,9.907405475055363
972095.0,-1.7300725,-1.2467052,9.566847,9.801631814773103
972095.8860706063,-1.6104271,-1.2108115,9.490273,9.701794759088427
972097.0452033768,-1.5123179,-1.2155973,9.320377,9.520200084481244
972098.2043361474,-1.4118158,-1.2586696,9.384986,9.573684517221663
972099.3634689179,-1.4189945,-1.3089207,9.473523,9.668218906367798
972100.5226016884,-1.4931747,-1.3448143,9.535739,9.74517390621253
972101.6817344589,-1.5386399,-1.3567789,9.5907755,9.807713108403888
972102.8408672295,-1.5338541,-1.4644598,9.638634,9.869175056298213
972104.0,-1.4979604,-1.5171037,9.60274,9.836569752923113
972105.8860706063,-1.5123179,-1.562569,9.54531,9.789875908637526
972107.0452033768,-1.4931747,-1.5482116,9.588383,9.826678909875078
972108.2043361474,-1.5171037,-1.5769265,9.624276,9.869903208599968
972109.3634689179,-1.5003533,-1.5649619,9.672134,9.912131046713846
972110.5226016884,-1.509925,-1.5960697,9.617098,9.864881445536337
972111.6817344589,-1.5290682,-1.5338541,9.645813,9.88597321417103
972112.8408672295,-1.6008555,-1.457281,9.629062,9.869409366557111
972114.0,-1.61282,-1.4357449,9.56924,9.809837202924216
972114.8860706063,-1.6415349,-1.4477094,9.559668,9.807025624774841
972116.0452033768,-1.6415349,-1.4094229,9.542917,9.785109841378961
972117.2043361474,-1.6846073,-1.4357449,9.6410265,9.891848014743836
972118.3634689179,-1.7563945,-1.3902797,9.67692,9.932803228206142
972119.5226016884,-1.7372513,-1.4094229,9.703242,9.957781896635419
972120.6817344589,-1.7228938,-1.380708,9.703242,9.951262379110824
972121.8408672295,-1.7300725,-1.3926725,9.624276,9.877214995720632
972123.0,-1.7085364,-1.4189945,9.588383,9.842242151859718
972123.8860706063,-1.6702498,-1.4477094,9.564454,9.81653590730276
972125.0452033768,-1.718108,-1.4788172,9.554882,9.820110256234592
972126.2043361474,-1.715715,-1.4716384,9.581204,9.84423016955595
972127.3634689179,-1.7300725,-1.4716384,9.497452,9.76526829779473
972128.5226016884,-1.720501,-1.4524952,9.43045,9.695527484336479
972129.6817344589,-1.7611804,-1.4596739,9.351485,9.627184219745168
972130.8408672295,-1.8568966,-1.4668527,9.262947,9.560434558711119
972132.0,-1.8951832,-1.5147108,9.272519,9.584658406774855
972132.8860706063,-1.9382555,-1.5841051,9.33952,9.669170449502184
972134.0452033768,-1.9502201,-1.588891,9.411307,9.741695565792128
972135.2043361474,-1.8880045,-1.5242825,9.404129,9.712138815959515
972136.3634689179,-1.8784329,-1.4644598,9.423272,9.719630026477471
972137.5226016884,-1.8018597,-1.4429235,9.423272,9.701895783367307
972138.6817344589,-1.7922882,-1.4501023,9.552489,9.826756319734683
972139.8408672295,-2.000471,-1.3663505,9.688885,9.987156274631747
972141.0,-2.2971919,-1.2419193,9.763065,10.10627984806294
972142.8860706063,-2.4862316,-1.119881,9.7176,10.092929742299782
972144.0452033768,-2.4048727,-0.9691278,9.370628,9.722720324596514
972145.2043361474,-2.0555081,-0.9858781,9.064336,9.346617371975876
972146.3634689179,-1.6941789,-1.0528796,8.968619,9.187759485558074
972147.5226016884,-1.4046371,-1.1868824,9.105016,9.288864923895824
972148.6817344589,-1.4118158,-1.2108115,9.334735,9.518222831069195
972149.8408672295,-1.5912839,-1.196454,9.334735,9.544682506230378
972151.0,-1.067237,-1.2084186,9.277305,9.416350587675671
972151.8860706063,-0.45704544,-0.6293348,8.681471,8.716242972092784
972153.0452033768,-1.2036327,0.3828653,7.0519004,7.164120097121037
972154.2043361474,-2.4096584,0.95237744,6.092344,6.620432901800871
972155.3634689179,-3.1945324,1.1605604,6.43453,7.277026454369801
972156.5226016884,-3.3404996,1.2538838,7.441944,8.253102002316378
972157.6817344589,-2.9193478,0.93562704,8.781973,9.30166863030892
972158.8408672295,-2.3378713,0.77290934,9.054764,9.383591112091304
972160.0,-2.8451676,1.5769265,7.4275866,8.108681678237934
972160.8860706063,-3.6563635,2.165582,6.558961,7.815286868847314
972162.0452033768,-4.3120203,2.0339718,8.037778,9.345396488544043
972163.2043361474,-4.245019,1.5649619,10.050214,11.02161936852333
972164.3634689179,-3.6563635,1.1222739,11.158131,11.795438955965752
972165.5226016884,-2.6920216,1.014593,10.95234,11.323874369053886
972166.6817344589,-1.9693633,1.2203832,9.621883,9.896886350156706
972167.8408672295,-1.5218896,1.639142,7.853524,8.165829637540092
972169.0,-1.7563945,2.187118,6.322063,6.916421571992503
972169.8860706063,-1.6199988,1.8353605,7.8272023,8.201099933672738
972171.0452033768,-7.518517,2.4383733,5.43908,9.594652337413894
972172.2043361474,-14.211481,-0.54797596,9.440022,17.069870685701837
972173.3634689179,-11.866431,-9.040407,24.18273,28.41382715609268
972174.5226016884,0.2943277,-16.310062,34.390877,38.06359378813252
972175.6817344589,11.641498,-16.94179,28.997261,35.54419600427368
972176.8408672295,15.802765,-10.758514,14.120551,23.766845934558123
972178.0,14.194731,-3.6659353,3.070101,14.978484233604819
972178.8860706063,11.095915,-0.2057901,-0.21296883,11.09986643951334
972180.0452033768,8.992549,1.1820966,1.5242825,9.197104274114697
972181.2043361474,7.8008804,2.708772,4.812138,9.557607069456882
972182.3634689179,5.7501583,5.230897,7.025578,10.477850453874204
972183.5226016884,2.0937946,8.549861,8.717364,12.388564648691396
972184.6817344589,-2.2469406,11.701321,11.10788,16.289710043440593
972185.8408672295,-6.5230675,14.14448,13.254318,20.45222896715857
972187.0,-11.935825,15.948732,13.816651,24.24305706164654
972188.8860706063,-18.516323,16.84368,11.53621,27.56171102357089
972190.0452033768,-24.524916,14.809709,8.595325,29.911178467712737
972191.2043361474,-26.16645,7.98992,6.477602,28.115498481785878
972192.3634689179,-25.814693,0.832732,3.3022132,26.03836456627657
972193.5226016884,-26.391384,-5.2189326,-0.30389932,26.904177402691484
972194.6817344589,-28.915901,-10.1435375,-3.1873536,30.808763471245324
972195.8408672295,-28.85847,-15.084892,-3.8286529,32.78755618250989
972197.0,-23.223173,-20.870945,-0.03828653,31.223606057586196
972197.8860706063,-23.589289,-27.43469,4.6781354,36.48289629048596
972199.0452033768,-19.834816,-36.309986,12.818809,43.31462655099929
972200.2043361474,-5.0849295,-45.680614,25.017855,52.33037427955193
972201.3634689179,15.570653,-49.86581,37.2839,64.1804755436769
972202.5226016884,34.19705,-44.721058,39.3753,68.70098621877173
972203.6817344589,46.747852,-31.189163,32.57705,64.95682983302812
972204.8408672295,54.280727,-14.68767,22.713484,60.646742114442425
972206.0,57.807873,1.1557746,14.85278,59.69665877952077
972206.8860706063,58.76982,14.065514,11.361527,61.48832997153464
972208.0452033768,57.003857,25.58258,8.229211,63.020853897859645
972209.2043361474,50.93544,35.4964,2.6369848,62.139899821202086
972210.3634689179,38.726826,43.464783,-7.6166263,58.71087982193093
972211.5226016884,21.622318,46.68803,-19.760635,55.11605461730047
972212.6817344589,3.070101,39.296337,-23.314104,45.794924031933775
972213.8408672295,-8.274676,29.454306,-21.691711,37.50408952306579
972215.0,-15.479722,19.41127,-13.5438595,28.281713639133045
972215.8860706063,-25.74769,9.250982,1.6056414,27.40624550364055
972217.0452033768,-38.226707,-1.61282,19.638597,43.00647403059983
972218.2043361474,-47.76484,-12.029149,35.180534,60.52974754957232
972219.3634689179,-48.40614,-20.165037,43.91465,68.39795019979377
972220.5226016884,-24.11812,-24.457914,49.013935,59.85180944424337
972221.6817344589,4.3909864,-20.56226,46.20945,50.76810580645179
972222.8408672295,18.408642,-9.576418,29.590702,36.14132713179875
972224.0,17.513695,4.6661706,5.211754,18.859083762946845
972225.8860706063,8.025814,12.756593,-15.730978,21.78550031940348
972227.0452033768,-0.46661708,11.117451,-24.955639,27.32397054117629
972228.2043361474,-7.3581924,5.6257267,-25.149464,26.80088311578196
972229.3634689179,-15.972662,-2.7422726,-20.330147,25.999247439504163
972230.5226016884,-21.560102,-13.474465,-8.2028885,26.714913157823688
972231.6817344589,-27.446655,-23.467249,10.059786,37.48639674178917
972232.8408672295,-11.170095,-31.62228,26.209522,42.56381865124309
972234.0,11.146166,-26.178415,39.995068,49.083112093024475
972234.8860706063,14.785779,-8.559432,39.248478,42.8056790871953
972236.0452033768,6.3148847,8.446965,22.615374,24.953639567113154
972237.2043361474,-4.4723454,17.516087,5.077751,18.777612531588545
972238.3634689179,-13.491216,18.164566,-3.1347096,22.842740015228998
972239.5226016884,-18.822615,11.670213,-4.2306614,22.5473546737759
972240.6817344589,-24.132479,3.1442811,-4.8049593,24.806262922816785
972241.8408672295,-26.822107,-6.477602,-1.4716384,27.63241703453043
972243.0,-13.589325,-18.454107,11.060021,25.44696216925539
972243.8860706063,19.260517,-24.986746,30.399504,43.81135508314963
972245.0452033768,33.132206,-14.996355,33.050846,49.14256972349102
972246.2043361474,24.144444,1.9095407,16.850859,29.505117705102847
972247.3634689179,10.638869,13.608468,0.8997334,17.296978207110644
972248.5226016884,-1.0624512,16.178452,-3.8310459,16.659772638202245
972249.6817344589,-5.1878247,10.528795,-2.3450499,11.969474019498314
972250.8408672295,-7.736272,2.2708697,0.014357449,8.062689364517516
972252.0,-11.131808,-6.4680305,2.7255223,13.15982673539403
972252.8860706063,-5.6185484,-16.051628,12.225368,20.94474803641597
972254.0452033768,13.022206,-18.475643,26.264559,34.651901720314946
972255.2043361474,17.580696,-8.248354,25.608902,32.139260682214456
972256.3634689179,9.45438,4.8719606,12.380906,16.322013805078967
972257.5226016884,-1.170132,11.172488,6.116273,12.790718995353505
972258.6817344589,-5.932019,8.518753,5.970306,11.97508061872679
972259.8408672295,-5.5084743,2.0866158,4.8073525,7.603150180670271
972261.0,-7.0207925,-4.7762446,2.4981961,8.851272426105785
972262.8860706063,-4.7475295,-12.0243635,5.1758604,13.925296579024472
972264.0452033768,7.810452,-16.18563,17.520872,25.098978755749965
972265.2043361474,12.316298,-8.38475,21.801786,26.406686686843162
972266.3634689179,5.860232,4.6446347,12.234939,14.339061438043604
972267.5226016884,-4.070337,11.457244,9.236626,15.269294130148289
972268.6817344589,-9.250982,9.803744,11.019341,17.41034004424213
972269.8408672295,-8.176567,4.4651666,8.403893,12.546687938523599
972271.0,-7.681235,-1.9956853,3.1466742,8.537311606284891
972271.8860706063,-1.9573988,-9.487881,2.8834543,10.107700264283213
972273.0452033768,12.569946,-15.226074,12.419193,23.325377310295348
972274.2043361474,14.01287,-9.009299,16.64507,23.549657097571526
972275.3634689179,4.6709566,2.629806,11.65107,12.825020362620076
972276.5226016884,-6.042093,7.705164,14.522559,17.515169425273225
972277.6817344589,-10.382828,6.1354165,17.355762,21.134543465774232
972278.8408672295,-8.389536,2.4599094,11.004984,14.055075289437633
972280.0,-6.0827723,-2.895419,1.6343563,6.932149057439402
972281.8860706063,4.757101,-9.798959,1.0122001,10.939568385010535
972283.0452033768,17.76495,-13.886045,8.798723,24.20399183348181
972284.2043361474,13.852545,-5.8506603,11.016949,18.641255166742987
972285.3634689179,2.5867336,3.441002,11.524245,12.302028625450275
972286.5226016884,-7.5352674,5.3768644,20.162643,22.186101467155943
972287.6817344589,-9.868353,4.4388447,19.583559,22.37417074015947
972288.8408672295,-6.798252,0.9140909,8.233996,10.716831740630381
972290.0,-0.5934412,-4.225876,-3.0150642,5.225017947850043
972290.8860706063,14.520166,-10.179431,-1.720501,17.816176914319133
972292.0452033768,18.150208,-8.7556505,6.0827723,21.049740734153033
972293.2043361474,8.942298,0.07657306,9.686492,13.183272894861341
972294.3634689179,-2.8906329,3.9195836,19.576382,20.173091641339344
972295.5226016884,-10.169859,3.0150642,26.606745,28.643245690826095
972296.6817344589,-11.244275,1.8114314,17.288761,20.703049555745455
972297.8408672295,-7.78413,-2.3665862,1.2658484,8.233819421794056
972299.0,4.563276,-7.142831,-6.3053126,10.564113286521295
972299.8860706063,12.7589855,-8.032992,-0.8279462,15.099873058121007
972301.0452033768,7.0925794,-0.8877689,5.8985186,9.267434264113101
972302.2043361474,-3.204104,3.7377224,16.791037,17.497879149132523
972303.3634689179,-11.335206,2.1368668,28.8824,31.10058077501734
972304.5226016884,-14.642204,0.37807947,23.515108,27.703743182373668
972305.6817344589,-10.287112,-3.8095098,6.412994,12.70683006342951
972306.8408672295,3.2423904,-8.51636,-5.43908,10.61249614379257
972308.0,13.785543,-9.205518,-4.0727296,17.06956015390816
972308.8860706063,8.930333,-1.6558924,2.340264,9.379214397856718
972310.0452033768,-2.4264088,4.6709566,13.1514225,14.165634789775828
972311.2043361474,-12.270833,4.113409,27.712269,30.58534500775708
972312.3634689179,-17.377298,1.2443122,26.587603,31.78709536773503
972313.5226016884,-12.098543,-4.5991693,10.808765,16.862873473940805
972314.6817344589,4.618313,-10.667584,-3.1323166,12.039002061867942
972315.8408672295,16.491922,-10.44983,-5.2380757,20.214348253701242
972317.0,10.52401,-1.3735292,-0.5527618,10.627648589922979
972318.8860706063,-1.7372513,6.355564,10.009535,11.98340630846141
972320.0452033768,-13.462501,7.410836,25.173393,29.493374485235595
972321.2043361474,-20.303825,3.9650488,26.625889,33.71802020666883
972322.3634689179,-14.1468725,-3.7377224,12.971954,19.55444094953456
972323.5226016884,6.046879,-11.473994,-1.093559,13.015880886023734
972324.6817344589,17.159544,-10.842267,-5.2452545,20.964670251568357
972325.8408672295,8.569004,-0.82076746,-1.8329676,8.801207814729782
972327.0,-4.991606,7.2146177,8.85376,12.464184897296304
972327.8860706063,-18.138243,8.497216,23.488787,30.8694291105144
972329.0452033768,-25.123142,4.321592,25.328932,35.936099087508815
972330.2043361474,-15.125572,-4.4292727,12.988705,20.423218222287453
972331.3634689179,8.446965,-12.321084,0.571905,14.949495107705344
972332.5226016884,16.221523,-9.897068,-3.4075012,19.30546108913627
972333.6817344589,5.522832,0.73701566,-0.39722276,5.585933342277838
972334.8408672295,-8.760436,8.109566,10.500081,15.898490514039784
972336.0,-21.612745,8.090423,22.86663,32.48766624906834
972336.8860706063,-24.386126,1.5266753,22.356941,33.118675843653335
972338.0452033768,-5.8195524,-8.511574,10.921232,15.019566920908398
972339.2043361474,16.896324,-14.003298,1.2490981,21.980408678029704
972340.3634689179,16.513458,-7.444337,-1.8425392,18.207344649642618
972341.5226016884,2.5149465,4.0535865,1.3950654,4.9701837874591375
972342.6817344589,-12.641733,10.181824,12.593875,20.544795952403373
972343.8408672295,-23.464857,7.839167,21.579245,32.82858309544235
972345.0,-19.217445,-1.5290682,18.523502,26.735152294914656
972345.8860706063,5.860232,-12.067435,9.432844,16.39950769082368
972347.0452033768,21.40935,-13.799901,3.1801748,25.669262684986805
972348.2043361474,13.036563,-3.3022132,1.1318455,13.49583865890125
972349.3634689179,-2.6896286,7.755415,5.111252,9.66982217187405
972350.5226016884,-17.803236,11.792251,14.300018,25.700251176185436
972351.6817344589,-24.680454,6.1880603,18.166958,31.26428094321563
972352.8408672295,-10.023892,-5.9487696,13.340463,17.715366878388863
972354.0,17.039898,-15.472544,7.8439527,24.3163594241033
972354.8860706063,22.062613,-12.050685,4.742744,25.582641028762644
972356.0452033768,8.004277,0.7322299,4.338342,9.13377371233528
972357.2043361474,-8.6048975,9.923389,10.050214,16.53858251715132
972358.3634689179,-22.045862,10.500081,15.6256895,28.990238092848
972359.5226016884,-21.98604,1.509925,13.608468,25.90089244976414
972360.6817344589,2.450338,-10.837481,8.284247,13.859433577769837
972361.8408672295,21.095879,-15.015498,6.214382,26.62930405798411
972363.0,14.960462,-5.673585,5.4510446,16.903220913093993
972364.8860706063,-0.78487384,5.9942346,8.128709,10.130290488985718
972366.0452033768,-16.247847,10.930804,14.493844,24.362810226206683
972367.2043361474,-24.410055,6.17131,15.462972,29.547239385294677
972368.3634689179,-11.08395,-5.3218274,9.444808,15.504199193597673
972369.5226016884,14.314376,-13.926725,6.034914,20.863250381529646
972370.6817344589,18.59529,-9.645813,5.2213254,21.589088854042778
972371.8408672295,5.991842,2.6106627,5.790838,8.732212493313439
972373.0,-9.109801,10.521617,11.87361,18.294138760444287
972373.8860706063,-20.246395,9.045193,16.463207,27.618276767896344
972375.0452033768,-17.176294,-0.8566611,13.067671,21.599142788058284
972376.2043361474,8.145459,-12.299547,7.8487387,16.71017827274047
972377.3634689179,22.251652,-13.775971,5.936805,26.83577923835956
972378.5226016884,13.18971,-2.7279153,4.893497,14.330257661922309
972379.6817344589,-2.5484471,8.408679,7.702771,11.68473988692005
972380.8408672295,-16.62114,11.663034,13.371571,24.312292528529614
972382.0,-21.560102,4.979642,14.137301,26.258296065494598
972382.8860706063,-2.835596,-7.8439527,10.167466,13.150876909780932
972384.0452033768,20.136322,-15.482116,8.332106,26.731841872949495
972385.2043361474,18.576145,-8.734115,7.3031554,21.7874736188205
972386.3634689179,3.1682103,4.242626,7.37255,9.076999800782309
972387.5226016884,-12.881024,11.981291,11.418958,20.972951988716826
972388.6817344589,-23.02456,9.818102,13.239961,28.316462656156844
972389.8408672295,-13.965012,-1.5338541,9.834852,17.14930268034636
972391.0,12.763772,-12.971954,8.099994,19.919723116703604
972391.8860706063,20.89966,-11.897539,8.356035,25.459193688986815
972393.0452033768,9.286877,0.0598227,7.865489,12.170274457779714
972394.2043361474,-6.898754,9.837245,11.469209,16.61044704480352
972395.3634689179,-19.614668,10.674763,14.632633,26.698309204312583
972396.5226016884,-18.81783,1.7396442,11.691749,22.22237796750147
972397.6817344589,4.7953877,-10.538367,7.592697,13.845648051059555
972398.8408672295,19.557238,-13.318927,6.8341455,24.628944746682578
972400.0,12.167937,-3.3022132,6.1832747,14.04265604755323
972401.8860706063,-2.9648132,7.805666,9.112194,12.359232116441792
972403.0452033768,-16.642675,11.292133,14.316769,24.687259334415295
972404.2043361474,-20.500044,4.381415,14.587168,25.538873735237132
972405.3634689179,-0.7609448,-8.368,10.315826,13.304838482707073
972406.5226016884,20.236824,-15.015498,7.7243075,26.356387312177976
972407.6817344589,17.42037,-7.4515157,5.8195524,19.82073579109999
972408.8408672295,1.9167194,5.5060816,6.661856,8.852743823749273
972410.0,-13.718542,12.88581,11.660641,22.140755237632362
972410.8860706063,-22.452656,9.581204,14.288054,28.285503683881394
972412.0452033768,-9.944926,-2.605877,11.38785,15.341944977971503
972413.2043361474,14.910211,-13.180138,8.679078,21.710753664800514
972414.3634689179,18.899189,-10.504867,6.9370403,22.70801848839379
972415.5226016884,5.001178,1.4931747,6.898754,8.650673894265122
972416.6817344589,-11.34717,10.6963,11.359135,19.292460927707616
972417.8408672295,-23.338032,10.837481,14.565632,29.568097125412198
972419.0,-18.43975,1.1605604,11.804215,21.925117383283794
972419.8860706063,6.1880603,-10.413936,7.9875274,14.510091221432168
972421.0452033768,17.291153,-11.359135,6.219168,21.60305465969704
972422.2043361474,8.116744,-1.3854938,6.1330233,10.267185643092139
972423.3634689179,-6.867646,8.157424,10.973877,15.301441249379778
972424.5226016884,-19.296412,9.995177,16.305275,27.16831007185942
972425.6817344589,-19.473486,2.1153307,14.7451,24.51752954464537
972426.8408672295,1.9765421,-9.310805,8.79633,12.960448676261073
972428.0,17.26244,-12.845131,4.843246,22.055526676488075
972428.8860706063,11.540996,-4.2976627,3.4433947,12.78755099364125
972430.0452033768,-2.7494514,6.506317,8.147852,10.783280396955046
972431.2043361474,-15.417507,10.504867,15.855409,24.483581178823066
972432.3634689179,-18.88483,4.656599,17.697948,26.29711166243177
972433.5226016884,-0.9284483,-6.738429,11.301705,13.190791391756557
972434.6817344589,18.482822,-13.570182,5.3026843,23.53471923313033
972435.8408672295,16.594818,-7.552018,3.046172,18.485132517215884
972437.0,2.2325833,3.9746203,6.65707,8.068371316784509
972438.8860706063,-12.175117,10.732193,14.979605,22.086240207626172
972440.0452033768,-19.786957,8.186138,18.26746,28.14669816384318
972441.2043361474,-8.463716,-1.9717562,11.708499,14.58119541991998
972442.3634689179,12.866667,-11.234703,5.149538,17.840611334832165
972443.5226016884,16.322025,-8.944691,2.9313123,18.84167160806698
972444.6817344589,4.2067323,1.1270597,6.3603497,7.7084958660894065
972445.8408672295,-9.837245,8.248354,15.180609,19.881087055546587
972447.0,-19.368198,7.7889156,19.942495,28.870355155698245
972447.8860706063,-13.448143,-0.39482984,13.512752,19.06837453388483
972449.0452033768,7.0088277,-9.705635,5.125609,13.022860058466161
972450.2043361474,15.819515,-10.179431,1.5793194,18.877820851099376
972451.3634689179,7.7769513,-1.0026284,4.113409,8.85473708431477
972452.5226016884,-5.0657864,6.812609,13.6036825,16.035398679113413
972453.6817344589,-14.35027,7.362978,21.488316,26.868037118800476
972454.8408672295,-11.655855,0.3230426,16.810179,20.45838288610517
972456.0,6.322063,-9.073908,6.812609,12.989069572348667
972456.8860706063,17.827166,-12.053078,1.1557746,21.550414190721373
972458.0452033768,11.794644,-4.0057282,1.9310769,12.605099900148543
972459.2043361474,-1.2993491,5.283541,10.440258,11.7729818095891
972460.3634689179,-11.737214,8.207675,19.825243,24.457481092632374
972461.5226016884,-12.481409,3.1442811,18.425392,22.475923665441698
972462.6817344589,3.2447834,-6.5924616,8.712579,11.397289243132821
972463.8408672295,17.841522,-12.426372,2.1560102,21.849096282028967
972465.0,14.654169,-6.3914576,2.1416528,16.13016044709124
972465.8860706063,1.8042527,3.0892444,9.329948,9.992331482246405
972467.0452033768,-10.30147,8.090423,18.736471,22.861114889997598
972468.2043361474,-14.792958,5.8937325,18.633575,24.510769193396303
972469.3634689179,-3.2423904,-2.916955,9.11698,10.106485358344766
972470.5226016884,12.694378,-10.490509,2.5101607,16.658298791466958
972471.6817344589,13.89801,-7.1021514,2.2493336,15.768790001541364
972472.8408672295,3.4864671,1.5793194,8.6048975,9.417747267372649
972474.0,-8.145459,6.767144,18.336855,21.17505588017283
972475.8860706063,-13.811866,5.697514,19.88028,24.86875230204668
972477.0452033768,-4.9844275,-2.28762,11.069592,12.353687296253709
972478.2043361474,10.698692,-10.330184,3.304606,15.234668778806974
972479.3634689179,14.134908,-8.595325,1.2897775,16.593334867457934
972480.5226016884,5.259612,-0.08135887,5.9296265,7.9265760632049655
972481.6817344589,-6.0564504,6.1593456,15.862588,18.062110278858434
972482.8408672295,-12.356977,6.1067014,19.638597,23.992940101115163
972484.0,-5.2715764,-1.067237,12.971954,14.042795417342019
972484.8860706063,10.67237,-9.949712,5.360114,15.544358217463982
972486.0452033768,16.14495,-10.497687,2.445552,19.412407564163004
972487.2043361474,8.138281,-2.2708697,5.541975,10.104551139460083
972488.3634689179,-4.0679436,5.386436,13.811866,15.373012076910399
972489.5226016884,-12.574732,7.8128448,17.4778,22.90497591312226
972490.6817344589,-8.578575,2.5077677,12.7589855,15.577951048099957
972491.8408672295,6.6977496,-7.133259,6.6546774,11.833341242584527
972493.0,14.977212,-10.169859,3.9482985,18.529219422790785
972493.8860706063,9.088264,-3.5773976,6.195239,11.566127372171843
972495.0452033768,-2.730308,3.984192,13.294997,14.145151568567126
972496.2043361474,-12.167937,7.3222985,17.042292,22.18365305292019
972497.3634689179,-10.875768,3.5606472,12.668056,17.07161916432732
972498.5226016884,2.524518,-5.5826545,6.7408223,9.109221024811701
972499.6817344589,12.311512,-9.937747,4.0607653,16.334685732631563
972500.8408672295,8.834617,-4.44363,5.77648,11.452686423018356
972502.0,-1.5410328,2.916955,12.6082325,13.032687187865635
972502.8860706063,-10.394793,6.3100986,16.556532,20.542342070017114
972504.0452033768,-9.84921,3.3740003,12.744629,16.45649974922192
972505.2043361474,3.175389,-5.8171597,8.143066,10.499141210450553
972506.3634689179,14.170802,-11.27299,5.465402,18.91461212620835
972507.5226016884,11.055236,-6.4369226,5.7070856,14.007963507227384
972508.6817344589,0.27279153,1.8832186,10.674763,10.843038901543917
972509.8408672295,-9.830067,6.982506,14.244982,18.662934373909398
972511.0,-10.9284115,5.5850477,11.916682,17.106438718030457
972511.8860706063,1.277813,-3.4960387,8.915976,9.661765919718958
972513.0452033768,13.84058,-10.78723,7.231368,18.97942751930953
972514.2043361474,12.048292,-7.7506294,7.7434506,16.28479730939408
972515.3634689179,1.2108115,0.19861138,11.337599,11.403800333818493
972516.5226016884,-9.6410265,6.1234517,13.153816,17.420359584629452
972517.6817344589,-12.940847,6.4967456,10.519224,17.897689740039198
972518.8408672295,-2.6704855,-1.7037506,8.502003,9.07294406048663
972520.0,10.770479,-9.722385,7.6190195,16.388332621686878
972521.8860706063,11.823359,-8.365606,8.375178,16.73077369166773
972523.0452033768,2.6250203,-0.98109233,11.194024,11.539473430272846
972524.2043361474,-7.4778376,4.7212076,13.0916,15.798665985907528
972525.3634689179,-11.497924,5.5395823,9.918604,16.163784633465806
972526.5226016884,-2.5077677,-1.9980782,8.63122,9.207560698625807
972527.6817344589,10.954733,-10.189003,8.600112,17.25641572424129
972528.8408672295,12.488587,-9.377807,9.023657,18.037030105853542
972530.0,3.6108983,-1.6582853,10.404365,11.13729355464621
972530.8860706063,-6.7049284,4.5465255,11.830538,14.338360727109666
972532.0452033768,-10.758514,5.7358007,9.172017,15.25683220746055
972533.2043361474,-1.9597918,-1.457281,8.341678,8.691837761255801
972534.3634689179,12.4670515,-10.490509,9.0978365,18.66142494997275
972535.5226016884,14.840816,-10.500081,10.019106,20.757745677015436
972536.6817344589,5.7166576,-2.9073834,11.1198435,12.836820938796551
972537.8408672295,-6.152167,4.2833056,11.914289,14.076439465802471
972539.0,-12.433551,6.8413243,8.143066,16.361736843248867
972539.8860706063,-5.3266134,0.61497736,7.542446,9.254161179128454
972541.0452033768,9.722385,-8.971012,8.892047,15.939646365041414
972542.2043361474,14.055943,-10.131573,10.236861,20.124900700547542
972543.3634689179,5.9870563,-3.2088897,11.777894,13.596345219262851
972544.5226016884,-5.8554463,3.6587565,12.804451,14.547395502627849
972545.6817344589,-13.141851,6.4967456,8.633613,17.013383688469773
972546.8408672295,-7.2576904,0.8877689,7.7745585,10.672673677761427
972548.0,7.707557,-8.411072,9.128944,14.611303352287537
972548.8860706063,12.629769,-9.511809,9.949712,18.6810691430867
972550.0452033768,5.5060816,-2.5675905,11.038485,12.599905025704512
972551.2043361474,-5.7358007,4.0416217,12.7542,14.556913590319597
972552.3634689179,-12.373728,6.381886,9.13373,16.6512052791346
972553.5226016884,-5.8985186,0.6652284,8.006671,9.967037222813685
972554.6817344589,10.066964,-9.176803,9.358664,16.527010296572122
972555.8408672295,15.259575,-10.619726,10.131573,21.172670614498067
972557.0,7.2241898,-3.3716075,10.997806,13.583386625363953
972558.8860706063,-5.510867,4.1804104,11.62714,13.529075015821192
972560.0452033768,-13.261497,7.193082,8.59054,17.36102268967278
972561.2043361474,-6.7240715,1.3926725,8.492431,10.921266342285106
972562.3634689179,9.990392,-9.016478,9.56206,16.50871888675036
972563.5226016884,15.714228,-10.899696,9.593168,21.395541750669086
972564.6817344589,7.5831256,-3.7879734,10.55751,13.539333578303731
972565.8408672295,-5.8554463,3.7472942,12.450301,14.259679525997011
972567.0,-14.814494,7.2529044,8.9973345,18.78898301708918
972567.8860706063,-9.169623,1.9669704,7.9324903,12.283133186455288
972569.0452033768,7.4371586,-8.198103,9.459166,14.56008386843012
972570.2043361474,13.522324,-9.775029,9.432844,19.167237261539622
972571.3634689179,6.326849,-2.6633067,10.856624,12.844785149018332
972572.5226016884,-6.3053126,4.2474117,13.007849,15.066572561130705
972573.6817344589,-14.199516,6.7408223,9.542917,18.388371455442222
972574.8408672295,-7.374943,0.87819725,8.535503,11.314407899937388
972576.0,9.363449,-9.239018,9.542917,16.25118136163688
972576.8860706063,14.280875,-10.330184,9.26534,19.91237347869613
972578.0452033768,5.7453723,-2.6920216,10.306255,12.102692893959546
972579.2043361474,-7.6764493,4.97007,11.828145,14.951069654088148
972580.3634689179,-15.570653,7.647734,9.246197,19.657701522405258
972581.5226016884,-7.554411,1.2610626,9.219875,11.986054373882373
972582.6817344589,10.619726,-9.523774,10.746551,17.85970912175652
972583.8408672295,16.243061,-11.086343,9.80853,21.97615281445481
972585.0,7.1260805,-3.3237493,10.507259,13.12367419569732
972585.8860706063,-7.3199058,4.551311,11.933433,14.720810979870764
972587.0452033768,-16.35074,7.9444547,8.408679,20.029152292420992
972588.2043361474,-9.564454,1.9215052,8.332106,12.829456455632835
972589.3634689179,8.032992,-8.810688,10.081322,15.613783550859543
972590.5226016884,14.283268,-10.342149,9.435237,19.999887198286743
972591.6817344589,6.506317,-2.9624202,10.68912,12.859447138981405
972592.8408672295,-6.9346476,4.118195,12.313905,14.720092518161554
972594.0,-14.72835,6.4967456,8.968619,18.42737430782748
972595.8860706063,-7.205046,-0.19143265,9.504631,11.928425913244505
972597.0452033768,9.332341,-10.40915,10.727407,17.621584866476397
972598.2043361474,13.33807,-10.579046,8.619255,19.081715917339327
972599.3634689179,4.2019467,-2.2780485,8.525931,9.774321483087926
972600.5226016884,-9.52856,5.1208234,10.43308,15.028820521051797
972601.6817344589,-16.458422,6.8843966,8.822652,19.90260685411033
972602.8408672295,-7.5113387,-0.5144752,10.346934,12.796246988781075
972604.0,10.18661,-11.143773,11.65107,19.070871299249255
972604.8860706063,14.9413185,-11.557746,9.4495945,21.1215370494997
972606.0452033768,5.410365,-2.943277,9.267733,11.12770434057461
972607.2043361474,-9.203125,5.056215,10.246432,14.671475338985989
972608.3634689179,-16.48953,7.379729,7.829595,19.68927519230624
972609.5226016884,-7.7147355,-0.13160995,10.78723,13.262684346948744
972610.6817344589,9.516596,-10.80398,11.770715,18.59680926607683
972611.8408672295,14.587168,-11.014556,8.652756,20.223157531228797
972613.0,6.257455,-2.9719918,8.638398,11.072957976200227
972614.8860706063,-7.1787243,4.027264,9.633848,12.671383712452657
972616.0452033768,-14.053549,5.4582233,7.4275866,16.80664998709033
972617.2043361474,-5.8698034,-2.5915194,10.902089,12.650142660031504
972618.3634689179,10.01432,-12.797273,12.483802,20.49151321094011
972619.5226016884,13.371571,-11.569711,8.406286,19.578630389926612
972620.6817344589,4.630277,-2.785345,7.599876,9.325005473517429
972621.8408672295,-8.566611,4.0799084,8.463716,12.714832484400555
972623.0,-14.194731,4.8049593,6.6786065,16.406761009378414
972623.8860706063,-4.773852,-3.8358316,11.462029,12.99543672903314
972625.0452033768,11.694141,-13.792723,13.512752,22.574025075207878
972626.2043361474,14.400521,-11.629534,9.523774,20.816419897083
972627.3634689179,4.7331724,-1.9932925,8.116744,9.605085586303435
972628.5226016884,-9.461558,5.6089764,7.6668777,13.407561661610147
972629.6817344589,-15.240432,6.7408223,6.17131,17.77060831662499
972630.8408672295,-5.3577213,-2.1703677,11.938218,13.264114086406261
972632.0,11.6726055,-12.412014,14.000905,22.052962420360927
972632.8860706063,14.599133,-10.124394,9.736743,20.259373200249165
972634.0452033768,5.0945015,-0.98109233,8.633613,10.07252506213095
972635.2043361474,-8.79633,5.841089,7.910954,13.19382186346841
972636.3634689179,-14.603918,6.4488873,6.190453,17.122624702540037
972637.5226016884,-5.1950035,-3.046172,11.981291,13.409644262443253
972638.6817344589,10.351721,-12.644126,14.055943,21.55461861376735
972639.8408672295,12.074615,-9.291662,9.262947,17.830689757978462
972641.0,2.7925239,-0.055036888,8.399107,8.851339852731956
972641.8860706063,-9.870746,5.903304,7.5831256,13.77622657255271
972643.0452033768,-13.4529295,5.2763624,5.623334,15.506230927716123
972644.2043361474,-2.237369,-5.1399665,12.105722,13.340673926176565
972645.3634689179,13.531896,-14.173195,15.02507,24.693002943500836
972646.5226016884,12.971954,-9.435237,9.944926,18.87317781852757
972647.6817344589,1.4979604,0.6939433,8.131102,8.297003217908685
972648.8408672295,-12.220582,7.2576904,5.5084743,15.243358667785019
972650.0,-14.718778,6.140202,5.0370717,16.72473012413142
972651.8860706063,-2.3857293,-5.1375737,13.797508,14.915012397778092
972653.0452033768,13.546252,-13.965012,15.687905,24.992656255321744
972654.2043361474,12.718307,-8.904011,9.94014,18.434834635926897
972655.3634689179,1.2945633,1.067237,7.7003784,7.881035240059674
972656.5226016884,-11.856859,7.161974,4.8312817,14.670387172372509
972657.6817344589,-14.283268,5.6855497,5.4510446,16.31107315237668
972658.8408672295,-2.833203,-5.7190504,14.9413185,16.247386720189542
972660.0,11.380671,-13.488823,16.422527,24.107414033887977
972660.8860706063,10.43308,-7.5065527,9.351485,15.894897402295566
972662.0452033768,0.08614469,2.1703677,6.6786065,7.022941096339961
972663.2043361474,-11.158131,7.037543,3.4697168,13.640741679330057
972664.3634689179,-11.966933,4.175625,5.0083566,13.628168086719414
972665.5226016884,-0.069394335,-7.736272,16.592424,18.30746444015364
972666.6817344589,13.33807,-14.821672,17.918097,26.80754133265289
972667.8408672295,10.351721,-7.585519,9.250982,15.820205249159253
972669.0,-1.1222739,2.7039862,4.905462,5.7126699108084
972669.8860706063,-12.292369,7.8439527,0.9739136,14.614323018609628
972671.0452033768,-11.744393,4.276127,5.1447525,13.516083284177938
972672.2043361474,1.4883888,-8.222033,18.920725,20.683591622314523
972673.3634689179,15.285897,-15.089679,19.420841,28.95731556213267
972674.5226016884,11.607997,-7.5831256,9.169623,16.623217924923964
972675.6817344589,-0.4450809,2.445552,4.5943837,5.223713542593478
972676.8408672295,-11.976505,7.310334,0.019143265,14.031322876734604
972678.0,-12.390478,3.9219763,4.656599,13.805424926928062
972678.8860706063,-0.105287954,-8.425429,19.018833,20.801801558259022
972680.0452033768,13.153816,-14.323948,19.193516,27.323788502160824
972681.2043361474,11.024128,-6.276598,8.92794,15.512420612450784
972682.3634689179,0.35415038,3.0581365,4.7714586,5.678418663307625
972683.5226016884,-9.696064,6.8580747,0.5360114,11.888404178181615
972684.6817344589,-9.382592,2.4168372,5.6113696,11.196499608251322
972685.8408672295,2.895419,-9.923389,20.442614,22.907587554866573
972687.0,13.859724,-14.266518,19.284447,27.704067955740886
972687.8860706063,9.0475855,-4.9533195,7.707557,12.87635866062838
972689.0452033768,-2.6944146,4.5656686,3.101209,6.141880580359742
972690.2043361474,-12.5077305,8.004277,-0.6006199,14.861780405376578
972691.3634689179,-10.339756,2.7350938,7.159581,12.870543591080194
972692.5226016884,3.7688303,-10.2847185,22.218151,24.771470491540086
972693.6817344589,15.611332,-14.4483795,19.346663,28.753481984375618
972694.8408672295,10.725014,-4.9652843,7.523303,14.009998626332248
972696.0,-1.8951832,4.6207056,2.8236315,5.737206153802202
972697.8860706063,-12.306726,8.243568,-1.1007377,14.853401687623656
972699.0452033768,-10.567082,2.629806,7.630984,13.297030435424896
972700.2043361474,3.3620358,-10.528795,23.036526,25.550740478921206
972701.3634689179,14.910211,-13.842974,18.245924,27.328667436283332
972702.5226016884,10.375649,-4.2115183,6.424958,12.91011478896295
972703.6817344589,-1.7755378,4.582419,2.239762,5.400706637786747
972704.8408672295,-11.823359,7.367764,-1.1629534,13.979564550197857
972706.0,-10.313434,1.0480938,9.33952,13.953209498762444
972706.8860706063,3.3141778,-11.811395,25.044176,27.887337231349534
972708.0452033768,12.971954,-13.433786,18.61204,26.365625913934075
972709.2043361474,7.6931996,-3.046172,5.5371895,9.956151440086396
972710.3634689179,-3.988978,5.6448703,0.8997334,6.970367736309301
972711.5226016884,-12.134437,7.554411,-1.7324655,14.39844170639935
972712.6817344589,-7.9540267,0.14118157,10.1435375,12.89099786649299
972713.8408672295,7.379729,-13.0581,26.37224,30.339238921585377
972715.0,16.71207,-13.759221,18.545038,28.504874681941423
972715.8860706063,10.052607,-2.9002047,4.8647823,11.538292838403104
972717.0452033768,-2.6369848,5.7669086,-0.35893622,6.3513588188837895
972718.2043361474,-11.064807,7.65252,-2.706379,13.722809609890025
972719.3634689179,-7.3462276,-0.36850783,11.64389,13.772546326074677
972720.5226016884,7.367764,-13.273461,27.535192,31.44289286555995
972721.6817344589,15.692691,-12.696771,17.066221,26.433396374071247
972722.8408672295,8.992549,-2.1416528,3.5486827,9.901806054373523
972724.0,-2.88824,5.5084743,-0.9763065,6.295902937093514
972724.8860706063,-10.882946,6.482388,-2.395301,12.891754523805556
972726.0452033768,-7.5376606,-1.8832186,13.5031805,15.57879081417292
972727.2043361474,5.7645154,-13.783151,28.145386,31.864833945505413
972728.3634689179,12.239725,-11.804215,15.896089,23.277371100228887
972729.5226016884,5.678371,-1.1462029,2.6513422,6.3708157847414055
972730.6817344589,-4.905462,5.6951213,-1.4261732,7.6506165798291015
972731.8408672295,-10.830302,5.83391,-2.0866158,12.477335965506164
972733.0,-5.879375,-3.0868514,14.711599,16.14084406383718
972734.8860706063,8.468502,-15.063356,28.588074,33.40506241778656
972736.0452033768,14.35027,-12.301941,15.604154,24.510357473853723
972737.2043361474,6.544604,-1.4668527,2.390515,7.120257040693004
972738.3634689179,-4.4412374,5.6257267,-2.500589,7.591201215431762
972739.5226016884,-9.98082,6.144988,-2.658521,12.018543143825086
972740.6817344589,-4.9078546,-3.1442811,15.759693,16.80301948653299
972741.8408672295,9.15766,-14.783386,28.358355,33.265711124318706
972743.0,14.472308,-11.596032,13.883653,23.16617097442512
972743.8860706063,6.6211767,-1.3902797,1.7013576,6.9762078681711275
972745.0452033768,-3.9459054,4.874354,-2.445552,6.731286721553997
972746.2043361474,-9.5500965,5.0657864,-1.9980782,10.993582287091522
972747.3634689179,-5.503689,-4.0727296,16.927431,18.259672485102193
972748.5226016884,6.645106,-14.563239,28.028133,32.27726139851468
972749.6817344589,10.856624,-10.500081,12.8092375,19.80390241885026
972750.8408672295,4.08948,-0.8710185,1.9573988,4.616701198906389
972752.0,-4.874354,4.3120203,-1.6846073,6.722406395044961
972752.8860706063,-9.246197,4.0488005,-1.2060257,10.165600938492016
972754.0452033768,-4.6948857,-5.43908,18.066456,19.442797519451783
972755.2043361474,7.9492407,-15.489294,27.439478,32.49667074082292
972756.3634689179,11.586461,-10.607761,11.832931,19.66695014455477
972757.5226016884,4.2306614,-0.7968384,1.0959519,4.442359495164492
972758.6817344589,-4.70685,4.917426,-3.1658175,7.507190941442895
972759.8408672295,-8.7556505,4.8097453,-1.4046371,10.088016202986529
972761.0,-4.0296574,-5.436687,19.808493,20.932560742259717
972761.8860706063,9.361056,-15.637654,27.695518,33.154295488626744
972763.0452033768,12.577125,-10.78723,11.196417,19.99770381759901
972764.2043361474,4.4890957,-1.3615648,1.3615648,4.884638943970841
972765.3634689179,-5.465402,4.2091255,-2.5891266,7.36823812367528
972766.5226016884,-10.801587,4.4340587,-0.6795859,11.696024763529422
972767.6817344589,-7.207439,-5.541975,19.1648,21.212030145163993
972768.8408672295,6.144988,-14.713992,25.15425,29.782523921902726
972770.0,10.617333,-9.578811,10.746551,17.88769796821858
972771.8860706063,4.1469097,-0.89494765,3.206497,5.317839257367941
972773.0452033768,-4.1780176,3.7544727,-1.2682413,5.758500874010591
972774.2043361474,-8.076065,2.7901309,0.5240469,8.560507080585788
972775.3634689179,-3.2878556,-7.884632,20.523973,22.230854322913558
972776.5226016884,8.961441,-15.1830015,24.16598,29.91363482938647
972777.6817344589,10.148323,-8.200496,8.681471,15.671775045673224
972778.8408672295,2.1536174,0.87580436,1.3519931,2.6894212249153866
972780.0,-6.7049284,5.6879425,-2.8786685,9.251782912786329
972780.8860706063,-10.021499,3.9482985,1.4620669,10.87001117166762
972782.0452033768,-3.9602628,-7.9061685,23.64911,25.248199650421732
972783.2043361474,10.777658,-15.546724,25.324146,31.609664815155128
972784.3634689179,12.0794,-8.552254,8.793938,17.21587344250532
972785.5226016884,3.153853,0.51926106,1.5841051,3.567325295215918
972786.6817344589,-7.080615,5.9176617,-3.0557437,9.720668615582035
972787.8408672295,-11.859253,4.560883,1.2132044,12.763831727732756
972789.0,-6.345992,-7.3773355,22.52923,24.541045167973678
972789.8860706063,8.595325,-14.63024,23.548609,29.02517045855383
972791.0452033768,11.493137,-8.133494,8.951869,16.684779930882097
972792.2043361474,3.7831876,0.17946811,2.2206187,4.390428752421616
972793.3634689179,-5.2978983,4.5967765,-3.0389934,7.644184814179907
972794.5226016884,-9.418487,2.000471,2.3474429,9.910613995094876
972795.6817344589,-3.6874714,-9.949712,23.964975,26.209048837365064
972796.8408672295,9.203125,-15.367256,23.373926,29.44809812854876
972798.0,9.466345,-7.683628,8.009064,14.587492349869631
972798.8860706063,1.0576653,0.703515,1.2562767,1.7865666483543177
972800.0452033768,-8.006671,4.948534,-3.723365,10.122164599265416
972801.2043361474,-11.115058,1.61282,3.1562457,11.666515744408546
972802.3634689179,-3.4721096,-11.071986,24.625418,27.22233698148144
972803.5226016884,11.768322,-15.809944,23.139421,30.39540320828235
972804.6817344589,12.569946,-7.6190195,7.9300976,16.70148042928596
972805.8408672295,3.618077,1.1390243,0.7106937,3.8591376069193464
972807.0,-6.214382,6.0181637,-4.5393467,9.769468072762333
972808.8860706063,-9.698457,2.0172215,3.5869691,10.535444845153243
972810.0452033768,-2.368979,-10.744158,25.240395,27.534097631617236
972811.2043361474,11.021734,-14.694849,22.361727,28.938970989343865
972812.3634689179,10.751336,-6.5206747,7.575947,14.680102086665647
972813.5226016884,1.2347406,1.4548881,0.78487384,2.0633251507036685
972814.6817344589,-9.014085,5.3026843,-3.8956544,11.160121521602301
972815.8408672295,-12.63934,0.4402951,4.5656686,13.445895476899631
972817.0,-4.477131,-12.031542,24.264088,27.450840995508116
972817.8860706063,8.925548,-14.378984,21.244238,27.161337157312488
972819.0452033768,8.200496,-5.809981,7.8559175,12.756153559485838
972820.2043361474,-0.64129937,2.0746512,0.6269419,2.2601988031143296
972821.3634689179,-8.793938,4.9963923,-4.036836,10.890056310884683
972822.5226016884,-10.12918,-1.3304569,6.618784,12.172867561664079
972823.6817344589,-0.11246668,-13.8453665,25.395933,28.92507969243856
972824.8408672295,12.084186,-14.72117,19.724741,27.419077390907542
972826.0,8.973405,-5.573083,6.5206747,12.413720230540644
972826.8860706063,-1.8042527,2.4575167,-0.20100428,3.0553426742044008
972828.0452033768,-11.562531,5.7190504,-4.1349454,13.546122473412172
972829.2043361474,-12.689591,-1.4142087,7.5328746,14.824638468905805
972830.3634689179,0.004785816,-14.027227,24.620632,28.336171941407112
972831.5226016884,13.512752,-14.259339,18.506752,26.98931427287342
972832.6817344589,9.763065,-5.0873227,6.855682,12.969142844971842
972833.8408672295,-1.746823,2.8810613,0.16271774,3.3731857154027844
972835.0,-11.689356,5.235683,-2.8427749,13.120014836245232
972835.8860706063,-12.502945,-2.9025974,9.222268,15.805028706185123
972837.0452033768,0.110073775,-14.321555,23.12985,27.20494467696025
972838.2043361474,10.471366,-12.955204,16.570889,23.496407785827454
972839.3634689179,5.211754,-3.6300416,6.264633,8.921054220154451
972840.5226016884,-5.7190504,3.6587565,-0.12443122,6.790399084924472
972841.6817344589,-14.1468725,4.836067,-1.8832186,15.068777583305529
972842.8408672295,-12.986312,-4.137338,11.024128,17.52978217913651
972844.0,3.1897464,-15.477329,23.467249,28.291941797949377
972844.8860706063,13.639576,-13.323712,16.379456,25.136545382662593
972846.0452033768,6.4177794,-3.5008245,6.401029,9.716832656051333
972847.2043361474,-6.389065,4.6159196,-0.6197632,7.906388034492324
972848.3634689179,-15.518009,5.960734,-2.2589052,16.77622144123712
972849.5226016884,-13.005455,-3.8669395,10.99302,17.462576258218178
972850.6817344589,5.876982,-15.283504,21.971682,27.402175494939524
972851.8408672295,15.9271965,-12.825988,15.881731,25.892294917255157
972853.0,7.260083,-3.1347096,7.193082,10.689978395766063
972854.8860706063,-6.4106007,4.5656686,-0.055036888,7.870461241814687
972856.0452033768,-15.599368,4.6589923,-0.8638398,16.303150322896105
972857.2043361474,-12.404836,-5.675978,12.256475,18.338971123511946
972858.3634689179,6.070808,-15.338541,20.370827,26.212518811542584
972859.5226016884,12.773343,-11.268204,14.151658,22.14497994874299
972860.6817344589,3.3476784,-1.4022441,6.7240715,7.641097874188213
972861.8408672295,-9.918604,5.5252247,0.4139731,11.36125816192158
972863.0,-18.0521,4.4149156,1.0480938,18.613658822991297
972863.8860706063,-12.304334,-6.690571,14.347877,20.050485028964413
972865.0452033768,9.188767,-16.10427,20.559866,27.685538484037924
972866.2043361474,14.611096,-11.004984,13.764008,22.891957438924614
972867.3634689179,2.940884,-0.6556568,5.886554,6.61288156069336
972868.5226016884,-11.7228565,6.980113,-0.4977249,13.652658059456456
972869.6817344589,-20.007105,5.5802617,1.5601761,20.82925156083442
972870.8408672295,-12.213403,-6.5302463,14.773814,20.250355791582248
972872.0,11.880789,-16.121021,19.875494,28.21481396516727
972872.8860706063,16.68814,-11.354349,14.082264,24.611489537187648
972874.0452033768,3.7090075,-1.0504867,6.6762137,7.7092209924220505
972875.2043361474,-11.648677,6.2813835,0.28714898,13.237443448835437
972876.3634689179,-19.923353,3.776009,2.4934103,20.430744814001176
972877.5226016884,-10.897304,-8.001884,13.127494,18.844428373869768
972878.6817344589,11.689356,-15.821908,17.72427,26.47873795119586
972879.8408672295,13.60129,-9.954497,13.854938,21.818487737947216
972881.0,0.4785816,0.27997026,7.394086,7.4148453436156725
972881.8860706063,-13.883653,6.6235695,1.1844895,15.428237388676306
972883.0452033768,-20.133928,2.943277,3.8669395,20.712101711428836
972884.2043361474,-8.743686,-8.968619,13.828616,18.657941797240472
972885.3634689179,13.407464,-15.522795,17.365334,26.875120101217725
972886.5226016884,12.234939,-8.612076,13.225603,19.96943063978305
972887.6817344589,-1.9238981,1.8257889,6.2167754,6.758933745835358
972888.8408672295,-15.991805,8.224425,0.30868515,17.985390745282142
972890.0,-20.449793,3.512789,4.307235,21.191649148817913
972891.8860706063,-6.0014133,-9.090658,13.907582,17.665725616489826
972893.0452033768,17.114079,-15.7764435,17.29594,28.998920842171582
972894.2043361474,14.156445,-9.0069065,13.728114,21.679262296830196
972895.3634689179,-1.1007377,1.2849916,6.3651357,6.58618094009619
972896.5226016884,-15.673548,7.1524024,0.8279462,17.248259677716018
972897.6817344589,-20.045391,1.8903974,4.5417395,20.640220453247778
972898.8408672295,-5.2978983,-9.775029,11.909504,16.29279607292744
972900.0,15.065749,-14.809709,15.405542,26.14641462819417
972900.8860706063,10.823123,-7.702771,13.409857,18.875829446994352
972902.0452033768,-3.4768956,2.0267932,7.0782223,8.142353751654548
972903.2043361474,-16.231096,6.558961,2.1488314,17.637628047624855
972904.3634689179,-18.631182,0.2632199,6.0564504,19.59262154180854
972905.5226016884,-2.7183435,-11.062414,12.057864,16.58790158922714
972906.6817344589,15.1830015,-14.512987,14.716385,25.646097435660582
972907.8408672295,8.054528,-6.692964,12.392871,16.225117566006137
972909.0,-6.2072034,3.0437791,6.070808,9.200471457019601
972909.8860706063,-18.217209,7.2337613,2.3354783,19.739515322946243
972911.0452033768,-18.65272,0.43550926,6.482388,19.75183500074081
972912.2043361474,-0.067001425,-11.026521,12.294762,16.515139333079727
972913.3634689179,18.073635,-14.594346,15.458186,27.903525434818032
972914.5226016884,9.631455,-6.826967,13.450537,17.89662955487661
972915.6817344589,-5.5252247,2.9313123,6.513496,9.030300655439849
972916.8408672295,-18.210032,7.2792263,2.0387578,19.71671712873866
972918.0,-18.638361,0.5001178,5.2931128,19.38183844978906
972918.8860706063,0.43550926,-10.490509,10.081322,14.55587512526508
972920.0452033768,16.594818,-13.381142,14.929354,26.025536623374435
972921.2043361474,7.7721653,-5.8554463,14.663741,17.5988097591226
972922.3634689179,-6.78868,3.3979294,8.006671,11.033534377162441
972923.5226016884,-18.200459,6.1880603,3.8406174,19.60354917101237
972924.6817344589,-17.025541,-1.3304569,6.0492716,18.117197597752398
972925.8408672295,3.01985,-11.6726055,9.595561,15.409218152971007
972927.0,15.261968,-12.543624,13.780758,24.086914732712533
972928.8860706063,4.264162,-4.2043395,13.450537,14.723331612847456
972930.0452033768,-9.8922825,4.891104,7.2529044,13.205482711137886
972931.2043361474,-19.7726,6.6044264,4.493881,21.325316533997285
972932.3634689179,-15.838658,-1.5649619,7.1715455,17.456897142619187
972933.5226016884,7.29837,-12.110508,10.71305,17.739787173961926
972934.6817344589,18.58811,-12.634555,14.816887,26.920066006436425
972935.8408672295,5.857839,-3.9147975,13.97219,15.648067312356092
972937.0,-9.789387,5.577869,6.8796105,13.201278765659039
972937.8860706063,-20.789585,7.6884136,4.1540885,22.55160746870879
972939.0452033768,-16.298098,-0.5623334,5.7142644,17.279960500633877
972940.2043361474,8.145459,-11.103093,9.538132,16.751213046724526
972941.3634689179,18.099957,-11.593639,15.324183,26.397944868524498
972942.5226016884,4.9772487,-3.3117847,15.441436,16.55834738924455
972943.6817344589,-10.504867,5.4893312,8.109566,14.361408302089961
972944.8408672295,-20.440222,5.936805,5.3768644,21.95356462612157
972946.0,-14.6398115,-2.555626,5.317042,15.783733418845246
972947.8860706063,8.85376,-11.849681,8.224425,16.92469120899953
972949.0452033768,14.4483795,-10.665192,13.821437,22.66129103378387
972950.2043361474,1.0241647,-1.9956853,14.189945,14.36614813554375
972951.3634689179,-13.14903,6.2119894,7.829595,16.51630588571904
972952.5226016884,-20.540724,5.360114,6.484781,22.196949095655757
972953.6817344589,-11.720464,-3.6898644,6.769537,14.028934630258005
972954.8408672295,12.8092375,-12.818809,9.875532,20.637939863099497
972956.0,16.439278,-10.868588,14.548882,24.495837069284896
972956.8860706063,1.9573988,-1.7300725,13.0006695,13.2605417825113
972958.0452033768,-13.22321,6.927469,5.8195524,16.022181486501978
972959.2043361474,-20.76087,6.1497736,4.5202036,22.11935078327594
972960.3634689179,-11.287348,-3.0437791,5.754944,13.030279986471388
972961.5226016884,13.582147,-12.285191,10.825516,21.274219884694855
972962.6817344589,16.271774,-10.67237,16.501493,25.514101625435003
972963.8408672295,1.6008555,-1.7252867,14.053549,14.249266367939022
972965.0,-13.378749,6.4153867,5.9511623,15.986383081750517
972965.8860706063,-20.516794,4.91264,3.8406174,21.443488751162175
972967.0452033768,-10.753729,-3.8430104,4.936569,12.441106455284038
972968.2043361474,11.354349,-11.739607,10.887732,19.62860977838405
972969.3634689179,10.923625,-9.138516,16.891539,22.09439176830632
972970.5226016884,-2.3546216,-0.4115802,14.01287,14.215279342211977
972971.6817344589,-14.883888,6.4297442,6.2550616,17.378076075727492
972972.8408672295,-18.463678,3.6826856,3.936334,19.234456162722342
972974.0,-6.070808,-5.675978,5.4510446,9.939080604388776
972974.8860706063,15.838658,-12.897775,12.294762,23.840655608188147
972976.0452033768,12.878632,-9.085872,17.607018,23.630897465905353
972977.2043361474,-1.1940612,0.22254045,12.562767,12.621347832047123
972978.3634689179,-13.7329,7.1763315,4.2282686,16.06146106559544
972979.5226016884,-16.305275,3.8980472,2.3833365,16.933312070333
972980.6817344589,-2.6154485,-5.9942346,5.077751,8.279793144396207
972981.8408672295,17.985098,-12.574732,13.263889,25.64212133084447
972983.0,13.141851,-8.528324,18.911152,24.557528945768976
972984.8860706063,-1.2993491,0.83751786,12.845131,12.93781800214591
972986.0452033768,-14.237803,7.080615,4.7212076,16.587342892920848
972987.2043361474,-17.020756,3.1969252,2.3354783,17.47515162840374
972988.3634689179,-3.3141778,-6.058843,4.182803,8.073982531902756
972989.5226016884,14.077478,-11.043271,12.435944,21.78949114575788
972990.6817344589,7.8200235,-6.58289,18.43975,21.08344346531544
972991.8408672295,-5.15911,2.237369,12.995884,14.160340284601814
972993.0,-16.16888,6.767144,5.6329055,18.41077246459437
972993.8860706063,-16.508673,1.8832186,3.1323166,16.908406305709317
972995.0452033768,-0.6556568,-7.4060507,5.7884445,9.422609115310735
972996.2043361474,15.317005,-11.62714,13.9961195,23.78428867567633
972997.3634689179,6.9968634,-6.0540576,18.087992,20.317065867256552
972998.5226016884,-6.2048106,3.0126712,10.741764,12.76563183602276
972999.6817344589,-16.84368,7.370157,3.8717253,18.788800572301284
973000.8408672295,-15.580225,1.9765421,2.1560102,15.85239760118959
973002.0,2.5891266,-7.9205256,6.537425,10.591327960256349
973002.8860706063,18.504358,-11.835323,15.671155,26.982795158035756
973004.0452033768,9.315591,-5.970306,19.356234,22.295483490511547
973005.2043361474,-4.524989,3.2208543,10.868588,12.20555746312693
973006.3634689179,-15.742943,7.2026534,3.3716075,17.63763610679835
973007.5226016884,-14.536917,1.5338541,1.0026284,14.651959867999311
973008.6817344589,3.460145,-7.896597,5.841089,10.41379701681164
973009.8408672295,14.979605,-10.339756,15.611332,23.979424657605634
973011.0,4.900676,-4.1540885,19.294018,20.335491317082365
973011.8860706063,-8.016242,4.3048415,10.823123,14.139723746092612
973013.0452033768,-17.678804,6.5182815,4.474738,19.36624343418987
973014.2043361474,-14.30959,0.10050214,2.0961876,14.462657746854081
973015.3634689179,5.2715764,-8.846581,7.391693,12.676302242248997
973016.5226016884,14.706813,-10.296683,16.446457,24.347442930876888
973017.6817344589,3.4529665,-3.1993182,17.96356,18.5700862267404
973018.8408672295,-9.250982,5.211754,8.91119,13.861903005610017
973020.0,-17.396442,6.6474986,2.9791706,18.860034182372797
973020.8860706063,-11.615176,-0.54079723,2.3761578,11.868062227906144
973022.0452033768,10.24404,-9.868353,9.5907755,17.155399183510983
973023.2043361474,18.097565,-10.68912,18.781935,28.187589958133174
973024.3634689179,5.446259,-2.9121692,17.863058,18.900563686193955
973025.5226016884,-8.31057,5.7956233,7.473052,12.589731107339302
973026.6817344589,-17.195438,7.0351496,1.5123179,18.640373476325106
973027.8408672295,-11.060021,-0.18903974,0.911698,11.09914383125763
973029.0,10.160288,-9.0475855,9.253376,16.45342587487877
973030.8860706063,15.037034,-9.317985,19.37059,26.232746576092275
973032.0452033768,2.7781663,-1.7061435,18.288996,18.577311654840265
973033.2043361474,-10.440258,5.941591,8.035385,14.452297492650434
973034.3634689179,-17.779306,5.49651,2.1272953,18.73074289277225
973035.5226016884,-9.954497,-1.9932925,1.509925,10.263776060456028
973036.6817344589,10.55751,-9.86596,10.24404,17.712666079483913
973037.8408672295,12.105722,-8.949476,19.329912,24.500757615706583
973039.0,-0.19382556,-0.9739136,16.288525,16.318765968160683
973039.8860706063,-12.239725,5.831517,6.848503,15.189451995971513
973041.0452033768,-16.960932,4.376629,1.7731448,17.606025621758935
973042.2043361474,-6.7599654,-3.493646,2.340264,7.9611261874315975
973043.3634689179,14.367021,-10.957127,11.844895,21.604894400797125
973044.5226016884,14.546489,-9.270126,20.46415,26.76409934045039
973045.6817344589,1.3687434,-0.7633377,15.52758,15.606469286667144
973046.8408672295,-11.074379,6.0684147,5.798016,13.895485480654251
973048.0,-15.472544,4.3550925,0.3278284,16.07712412016959
973048.8860706063,-4.7403507,-3.6108983,1.7587874,6.213118734607615
973050.0452033768,13.565396,-9.944926,12.110508,20.726454733030344
973051.2043361474,11.160523,-7.5113387,20.775229,24.750507524131454
973052.3634689179,-1.433352,0.6939433,15.26436,15.347206308286824
973053.5226016884,-13.156209,6.2239537,6.09713,15.779684063640968
973054.6817344589,-16.403385,3.2328188,0.46183127,16.725293569136785
973055.8408672295,-4.611134,-4.455595,2.7518444,6.977645102166802
973057.0,11.773108,-9.935354,12.888203,20.085395382072743
973057.8860706063,7.236154,-6.669035,20.138714,22.414409519698197
973059.0452033768,-4.4340587,1.2562767,13.613255,14.372189095507808
973060.2043361474,-14.637419,5.515653,5.510867,16.58451440620614
973061.3634689179,-15.144715,1.8305746,0.2632199,15.257217325356095
973062.5226016884,-1.0385221,-5.814767,4.3335567,7.325964584175404
973063.6817344589,15.223681,-11.048057,15.041821,24.084775391542497
973064.8408672295,9.346699,-6.9131117,20.703442,23.744144672332204
973066.0,-3.1418884,1.5649619,12.122473,12.620416795900013
973067.8860706063,-13.323712,5.7932305,3.697043,14.99169596906645
973069.0452033768,-13.015027,1.8927903,-1.3089207,13.216915537650667
973070.2043361474,1.9597918,-6.1378093,4.6446347,7.942677029752489
973071.3634689179,15.046606,-10.047821,16.38185,24.407459277642502
973072.5226016884,7.702771,-5.283541,21.189201,23.156656183385437
973073.6817344589,-4.481917,2.7925239,11.923861,13.040867719376699
973074.8408672295,-14.235411,5.7884445,3.8669395,15.84633197825798
973076.0,-13.005455,1.0768087,-0.4139731,13.05652137672758
973076.8860706063,2.5843408,-6.5278535,6.1497736,9.333349024828326
973078.0452033768,12.086578,-9.085872,17.18108,22.887287906540347
973079.2043361474,3.4146798,-3.5726118,19.523737,20.139510909036403
973080.3634689179,-7.6644845,3.9650488,10.162681,13.332142353908568
973081.5226016884,-15.829087,5.410365,3.2447834,17.039972535180613
973082.6817344589,-11.983684,-0.10050214,0.54079723,11.99630128564535
973083.8408672295,5.8674107,-8.016242,8.748472,13.237160060217693
973085.0,14.6900625,-10.263183,19.573988,26.538121029370924
973085.8860706063,4.7259936,-3.8621538,18.803473,19.76921456061986
973087.0452033768,-7.2194037,3.986585,8.312963,11.709739689043804
973088.2043361474,-15.40315,5.4031863,1.2634555,16.37216454582252
973089.3634689179,-10.275147,-0.5527618,-0.234505,10.292676234788173
973090.5226016884,8.370393,-8.528324,9.56924,15.309021634350936
973091.6817344589,14.783386,-9.753493,20.971447,27.44960321388734
973092.8408672295,4.4125223,-2.8284173,18.714933,19.43499458876759
973094.0,-7.4850163,4.5106316,8.222033,11.998878826593476
973094.8860706063,-14.883888,4.6757426,1.2586696,15.65173920112276
973096.0452033768,-8.6551485,-1.8042527,0.7418015,8.872271007352728
973097.2043361474,8.502003,-8.846581,10.629298,16.23354632772439
973098.3634689179,10.320613,-8.23639,20.48808,24.374466045726397
973099.5226016884,-0.15553902,-0.99784267,16.606783,16.63746146471583
973100.6817344589,-10.866196,5.254826,7.5113387,14.216455988283778
973101.8408672295,-15.862588,3.8119025,1.3065279,16.366408093431154
973103.0,-6.7527866,-3.0868514,2.2469406,7.757417127546377
973104.8860706063,11.5721035,-10.064571,12.763772,19.953020936608503
973106.0452033768,12.177509,-8.671899,21.182022,25.926272653811345
973107.2043361474,0.80641,-0.7657306,14.998748,15.039916289906017
973108.3634689179,-10.555118,5.515653,5.733408,13.217598545303039
973109.5226016884,-14.737921,3.6635423,-0.49533197,15.194512540606045
973110.6817344589,-4.0799084,-3.7831876,1.8425392,5.861152759715528
973111.8408672295,13.137066,-9.906639,13.400286,21.220076914244988
973113.0,11.835323,-7.8942037,21.796999,26.02887796232146
973113.8860706063,0.2967206,-0.011964541,14.821672,14.824646610974904
973115.0452033768,-11.112665,5.384043,5.7693014,13.629529745083502
973116.2043361474,-14.603918,2.656128,-0.6676214,14.858504475109397
973117.3634689179,-3.4984317,-4.4675593,2.371372,6.149919968663444
973118.5226016884,10.253612,-9.028442,13.859724,19.461276251831073
973119.6817344589,6.5278535,-6.0301285,20.983412,22.78769185779285
973120.8408672295,-3.670721,1.328064,14.022442,14.555645856206485
973122.0,-13.33807,4.9892135,5.9176617,15.42125425084254
973122.8860706063,-14.283268,1.3328499,-0.234505,14.34723758117844
973124.0452033768,-1.1414171,-5.5443683,4.008121,6.935984918730599
973125.2043361474,12.318691,-9.80853,15.912839,22.38695722411382
973126.3634689179,7.161974,-5.932019,20.832659,22.814083413613574
973127.5226016884,-3.5391111,1.6846073,12.278011,12.888474046584316
973128.6817344589,-12.991098,5.1471453,4.1253734,14.569846865164493
973129.8408672295,-12.471837,1.14381,-1.4764243,12.610901957603964
973131.0,2.060294,-6.066022,4.55849,7.862650020891175
973131.8860706063,14.01287,-9.56924,17.25526,24.20072059840574
973133.0452033768,7.867882,-5.3194346,21.079128,23.119895952836494
973134.2043361474,-3.0844586,2.1057591,11.969326,12.538455691855468
973135.3634689179,-12.306726,4.587205,3.75208,13.659284713245455
973136.5226016884,-11.390243,0.13160995,-1.4668527,11.485060453540733
973137.6817344589,2.5891266,-6.4967456,4.816924,8.49199839635659
973138.8408672295,9.904246,-8.222033,17.22894,21.506563858627093
973140.0,2.835596,-3.4242516,20.109999,20.595586019225564
973141.8860706063,-6.6474986,3.1059947,11.61039,13.734540278638017
973143.0452033768,-14.101407,3.7592585,3.9435124,15.117307759598763
973144.2043361474,-11.031306,-1.0313433,-0.62454903,11.097001512073648
973145.3634689179,4.22109,-7.523303,6.695357,10.919958524433964
973146.5226016884,10.54076,-8.674292,18.497179,22.989053787333333
973147.6817344589,2.5197322,-3.1945324,19.011654,19.442146883255525
973148.8408672295,-7.31512,3.3165705,9.971248,12.803765351386842
973150.0,-13.883653,3.6755068,2.000471,14.500588094387629
973150.8860706063,-8.683864,-1.6223917,-1.040915,8.89523202822444
973152.0452033768,7.7458434,-8.243568,8.054528,13.886321494576292
973153.2043361474,12.912132,-8.858545,20.155464,25.523316817328915
973154.3634689179,4.0176926,-2.94567,18.997297,19.639656791380133
973155.5226016884,-6.637927,3.543897,9.401736,12.042172587105451
973156.6817344589,-13.077243,3.153853,0.82076746,13.477193047888452
973157.8408672295,-7.0471144,-2.3737648,-1.2658484,7.543139456763938
973159.0,7.3031554,-7.7243075,8.592933,13.668924708754322
973159.8860706063,8.837009,-7.0471144,20.26554,23.204453471787875
973161.0452033768,0.27039862,-1.0720228,18.344034,18.377321123890002
973162.2043361474,-9.497452,4.1564813,9.382592,13.982523517878226
973163.3634689179,-14.1468725,2.3474429,0.8351249,14.364606618303778
973164.5226016884,-5.7453723,-3.5606472,0.17228939,6.761449177682377
973165.6817344589,8.513967,-8.667113,10.837481,16.28058586959385
973166.8408672295,8.155031,-7.1165085,20.677118,23.338646760844068
973168.0,-1.1940612,-0.44747382,16.582853,16.631807736639452
973168.8860706063,-11.160523,4.5106316,7.6190195,14.246140853081153
973170.0452033768,-14.235411,2.1942968,-0.7872668,14.42503566026072
973171.2043361474,-3.125138,-4.192375,0.60540575,5.263935009268453
973172.3634689179,11.770715,-9.131337,12.627376,19.52899566450282
973173.5226016884,10.660405,-7.1643667,21.971682,25.450485160114688
973174.6817344589,0.3326142,0.004785816,16.353134,16.3565169498898
973175.8408672295,-10.4857235,4.898283,6.7288575,13.387348390246947
973177.0,-13.053313,2.1272953,-1.87604,13.357914943993732
973177.8860706063,-1.1773108,-4.381415,0.7633377,4.600602413408806
973179.0452033768,10.1339655,-7.7243075,13.476858,18.546910380489535
973180.2043361474,6.606819,-4.967677,22.038683,23.537872045908884
973181.3634689179,-3.0150642,1.7276796,15.920017,16.29485901168423
973182.5226016884,-12.90256,4.848032,6.7838945,15.362314064416019
973183.6817344589,-13.464894,1.1127023,-1.5242825,13.5965037410162
973184.8408672295,0.16989647,-5.2978983,2.6202343,5.912885843186713
973186.0,10.399578,-8.224425,15.235646,20.196962598272666
973187.8860706063,5.1686816,-4.5537043,21.500278,22.576834286748465
973189.0452033768,-4.816924,2.340264,14.311983,15.281114154529472
973190.2043361474,-14.072693,4.7092433,5.149538,15.707813417031916
973191.3634689179,-12.203832,0.37568656,-2.390515,12.441431502878343
973192.5226016884,3.7592585,-6.300527,3.6228628,8.182530159747357
973193.6817344589,13.981762,-8.990156,17.030327,23.797995950413746
973194.8408672295,7.872668,-4.7475295,22.132008,23.965469240214308
973196.0,-3.3189635,2.577162,13.9961195,14.613303656150327
973196.8860706063,-12.881024,4.5537043,3.907619,14.210084038793559
973198.0452033768,-10.026285,-0.023929082,-3.0270288,10.473293028375545
973199.2043361474,5.080144,-5.996628,3.8119025,8.734873273300892
973200.3634689179,11.320848,-7.2265825,17.642912,22.173349722316523
973201.5226016884,4.2019467,-2.4120514,21.737177,22.270590741047076
973202.6817344589,-6.357957,3.9817991,13.754436,15.667254097789625
973203.8408672295,-14.30959,4.012907,3.6372204,15.300234011181827
973205.0,-9.303627,-1.2012398,-1.9047549,9.572279960453887
973205.8860706063,5.541975,-6.6283555,5.9559484,10.493898459508163
973207.0452033768,9.377807,-6.929862,18.60486,21.95693665081477
973208.2043361474,1.3663505,-1.4692456,20.193752,20.293181518911066
973209.3634689179,-8.908797,4.457988,12.132044,15.697987533862072
973210.5226016884,-14.824065,3.4792883,1.9047549,15.345567484710882
973211.6817344589,-7.0088277,-2.237369,-1.6846073,7.54767431237342
973212.8408672295,9.069121,-7.6955924,7.6716633,14.153639669291628
973214.0,12.653698,-7.753022,20.141108,25.017786766126054
973214.8860706063,3.649185,-1.7803236,19.997534,20.405574467926602
973216.0452033768,-7.518517,4.2474117,11.191631,14.135812975161594
973217.2043361474,-12.49098,2.835596,0.088537596,12.809099302508411
973218.3634689179,-3.7688303,-2.9097762,-2.0722585,5.192796419570748
973219.5226016884,9.351485,-6.8030376,8.190925,14.171197713950072
973220.6817344589,10.18661,-6.0253425,20.370827,23.559337176549242
973221.8408672295,1.4477094,-0.16271774,19.389734,19.44438541483158
973223.0,-8.688649,4.3168063,10.892518,14.586788078848773
973224.8860706063,-11.966933,1.6199988,0.033500712,12.076133646005866
973226.0452033768,-2.0961876,-4.1564813,-0.57429796,4.690432538530281
973227.2043361474,8.576182,-7.1835103,10.009535,15.011479235690102
973228.3634689179,6.5541754,-5.199789,19.980783,21.6616414454578
973229.5226016884,-2.1392598,0.87580436,17.48498,17.63711970162053
973230.6817344589,-11.380671,4.2569833,9.334735,15.322495121452802
973231.8408672295,-12.522088,0.9021264,-0.69155043,12.573573951687491
973233.0,-0.4091873,-4.955713,0.6795859,5.018800910608937
973233.8860706063,11.294526,-8.181353,12.144009,18.492642025069486
973235.0452033768,8.973405,-5.7070856,21.062378,23.594842452422444
973236.2043361474,-0.8279462,1.0241647,16.937004,16.98812858259663
973237.3634689179,-10.373257,4.29527,7.8798466,13.716624497320051
973238.5226016884,-10.4259,0.84230363,-2.010043,10.651250587464375
973239.6817344589,2.0890088,-4.83846,1.0169859,5.367393525620816
973240.8408672295,10.851838,-6.882004,13.306962,18.49863791482238
973242.0,6.99447,-3.9219763,21.253809,22.716269625251915
973242.8860706063,-2.553233,2.3546216,16.640284,16.99889094123883
973244.0452033768,-11.091129,3.9315479,7.3581924,13.87851601505194
973245.2043361474,-9.889889,-0.34457877,-1.4237803,9.99778922080896
973246.3634689179,2.627413,-5.5635114,2.7255223,6.7293706970485925
973247.5226016884,8.64797,-6.64032,14.587168,18.211718894259377
973248.6817344589,3.2471762,-2.5843408,20.416292,20.83381745320946
973249.8408672295,-5.876982,3.5199678,15.242825,16.711457288997444
973251.0,-12.94324,3.7161863,6.0061994,14.74489516905658
973251.8860706063,-8.896832,-1.222776,-1.0361292,9.040042284275701
973253.0452033768,5.568297,-6.6355343,4.474738,9.749847542158262
973254.2043361474,12.084186,-7.630984,16.202381,21.605013727373862
973255.3634689179,5.4534373,-2.8212388,20.375612,21.280623372594157
973256.5226016884,-5.1088586,3.7903664,14.156445,15.520059557845386
973257.6817344589,-12.098543,4.03205,3.8382246,13.317812808618168
973258.8408672295,-6.9346476,-1.1222739,-1.8210031,7.257057828970124
973260.0,6.8221807,-5.778873,5.0131426,10.250322989131428
973261.8860706063,11.493137,-6.458459,17.240902,21.70374604829899
973263.0452033768,4.2976627,-1.5529974,20.569437,21.07091464802482
973264.2043361474,-6.1282377,4.216304,14.359841,16.172122627329976
973265.3634689179,-12.254083,3.0030997,3.2591407,13.030854004301698
973266.5226016884,-6.140202,-2.3330853,-0.9739136,6.64032192880323
973267.6817344589,5.6903353,-5.970306,6.2670264,10.358575648145793
973268.8408672295,7.63577,-5.436687,17.310297,19.68524653787902
973270.0,0.27997026,-0.014357449,19.552452,19.554461605861977
973270.8860706063,-9.0978365,4.7020645,13.56061,16.99323933554143
973272.0452033768,-13.117922,2.390515,2.7973096,13.624220365274526
973273.2043361474,-4.393379,-3.3524642,-0.002392908,5.526373220832207
973274.3634689179,8.557039,-7.0088277,7.647734,13.447468814262566
973275.5226016884,10.059786,-6.1928463,18.059277,21.579808280518822
973276.6817344589,1.2562767,-0.13400285,18.839365,18.881680579704657
973277.8408672295,-8.87051,4.6900997,11.966933,15.616992933421242
973279.0,-12.053078,2.3139422,1.0313433,12.316439695848786
973280.8860706063,-2.577162,-3.2974274,-0.2656128,4.193487998318178
973282.0452033768,9.389771,-6.424958,8.423037,14.156109530431516
973283.2043361474,10.117215,-5.5084743,18.815435,22.061775148641384
973284.3634689179,1.1605604,0.48576033,19.059513,19.10099210348559
973285.5226016884,-8.628826,4.3096275,11.727643,15.184437350869517
973286.6817344589,-11.490745,1.3376356,0.78008807,11.59461198360552
973287.8408672295,-2.1464386,-3.6946502,0.21536173,4.278319698044852
973289.0,6.982506,-5.8961253,8.904011,12.759353254826715
973289.8860706063,5.7142644,-3.9411197,18.509144,19.767995693432642
973291.0452033768,-2.4575167,1.8688612,18.58811,18.84276688514042
973292.2043361474,-10.595797,3.9626558,11.105487,15.852614817803769
973293.3634689179,-11.306491,0.27039862,0.9571632,11.350154868468234
973294.5226016884,-0.2656128,-4.819317,1.2706342,4.991079820662306
973295.6817344589,9.557275,-7.0136137,10.165073,15.61604916916509
973296.8408672295,7.5687685,-4.419701,19.052334,20.971681963627745
973298.0,-1.6463208,2.005257,17.626162,17.816088646580248
973298.8860706063,-9.916211,4.3120203,9.334735,14.28502842784564
973300.0452033768,-9.542917,0.68915755,0.16271774,9.569152525721474
973301.2043361474,2.079437,-4.22109,1.8616825,5.060387411639079
973302.3634689179,11.473994,-6.334028,11.306491,17.309222621189576
973303.5226016884,9.093051,-3.7425082,19.669704,21.990616170614324
973304.6817344589,-0.57908374,2.3522286,17.829557,17.99337156235149
973305.8408672295,-8.750865,3.6611493,8.829831,12.959458628109296
973307.0,-8.365606,-0.03828653,0.06221561,8.365924957094888
973307.8860706063,1.7803236,-3.984192,1.8473251,4.738770730756128
973309.0452033768,8.5546465,-5.3194346,11.500317,15.288415624391183
973310.2043361474,5.317042,-2.1488314,19.296412,20.130571976204102
973311.3634689179,-3.3692145,3.2734983,17.73384,18.34547569873055
973312.5226016884,-9.868353,2.9025974,8.829831,13.556377764272312
973313.6817344589,-7.468266,-1.5769265,0.9834852,7.696033872831985
973314.8408672295,3.802331,-5.527618,2.9241338,7.318663830767707
973316.0,10.196181,-6.2550616,12.397656,17.227587669168646
973317.8860706063,5.3696856,-2.0196145,19.052334,19.897331404462598
973319.0452033768,-4.2234826,3.8812969,16.45603,17.42708220728164
973320.2043361474,-10.595797,3.512789,7.0183992,13.185921581531213
973321.3634689179,-6.819788,-1.0887731,0.35415038,6.915226512550529
973322.5226016884,5.4773664,-4.9963923,3.2591407,8.098609559532102
973323.6817344589,12.785308,-6.221561,13.551039,19.64185785283831
973324.8408672295,7.5687685,-1.8927903,19.870708,21.34745765068127
973326.0,-2.6992004,3.878904,16.664211,17.32130212464113
973326.8860706063,-9.320377,3.2352118,6.558961,11.84719343188543
973328.0452033768,-6.1330233,-0.80641,0.571905,6.2121934303004345
973329.2043361474,3.7353296,-3.8573678,3.6085055,6.469411527228984
973330.3634689179,8.473288,-4.587205,13.773579,16.809239653006617
973331.5226016884,3.1682103,-0.36372203,19.47588,19.735241371580265
973332.6817344589,-5.860232,3.907619,16.429707,17.8758797671285
973333.8408672295,-10.832695,1.9837208,6.1282377,12.603084006824636
973335.0,-5.6807637,-2.6178415,0.7657306,6.301627860016513
973335.8860706063,5.4821525,-5.8123736,4.264162,9.056531370313758
973337.0452033768,10.157895,-6.010985,14.314376,18.55306259814336
973338.2043361474,3.5295393,-0.8877689,19.12412,19.467350797282403
973339.3634689179,-5.970306,3.8334389,15.281111,16.847912657892973
973340.5226016884,-10.270362,1.8138243,4.7092433,11.443219243766563
973341.6817344589,-4.1349454,-2.8164527,0.31107804,5.012678806714898
973342.8408672295,7.6070547,-5.984663,4.6039553,10.718203060063715
973344.0,12.163152,-6.116273,15.1830015,20.39300361728589
973344.8860706063,4.862389,-0.8446966,19.490236,20.105363425441197
973346.0452033768,-5.2261114,3.7018287,14.85996,16.181291273904986
973347.2043361474,-10.0430355,1.9334698,3.9315479,10.957095254298316
973348.3634689179,-4.508239,-1.9693633,0.1483603,4.921851426762492
973349.5226016884,5.6855497,-4.7547083,4.8336744,8.848566811324552
973350.6817344589,9.052371,-4.63267,15.580225,18.605119271350183
973351.8408672295,2.2301903,0.31586388,19.727135,19.855310979008305
973353.0,-6.7240715,3.3955367,15.020284,16.80332522028944
973353.8860706063,-10.363685,0.81119585,4.0535865,11.157758242553227
973355.0452033768,-3.515182,-3.493646,0.5814767,4.990008218338211
973356.2043361474,6.6762137,-6.046879,5.49651,10.55216552129508
973357.3634689179,8.72215,-4.9461412,15.709441,18.63670437403884
973358.5226016884,0.9404129,0.7489802,19.035583,19.073509585610285
973359.6817344589,-7.9444547,3.804724,14.02962,16.565642835124994
973360.8408672295,-10.559903,0.99305683,3.206497,11.080583750327763
973362.0,-2.000471,-3.6132913,0.36850783,4.146511336203966
973363.8860706063,9.901854,-6.769537,6.276598,13.537689104322384
973365.0452033768,11.811395,-5.573083,17.066221,21.490095513788553
973366.2043361474,2.6369848,0.5934412,19.502201,19.688618670127408
973367.3634689179,-7.231368,3.852582,13.335677,15.651688479728858
973368.5226016884,-10.473759,1.5936768,2.3857293,10.859610380939904
973369.6817344589,-2.5484471,-2.5053747,0.19861138,3.57923616001571
973370.8408672295,8.23639,-5.5515466,6.8963614,12.092046577956996
973372.0,9.7176,-4.23784,17.74102,20.667240460835597
973372.8860706063,1.1222739,1.457281,20.05257,20.13675073651363
973374.0452033768,-7.8487387,3.2950344,13.46968,15.933996051852814
973375.2043361474,-10.074143,0.4115802,2.2756555,10.336167732779943
973376.3634689179,-1.7803236,-3.4864671,0.21296883,3.9205051565647686
973377.5226016884,8.245961,-5.941591,7.262476,12.491674590517396
973378.6817344589,8.291427,-3.7353296,17.489765,19.71274533575144
973379.8408672295,-0.56711924,2.2589052,19.20548,19.346181508643127
973381.0,-8.980584,3.7568657,12.40005,15.764712774782563
973381.8860706063,-9.746315,0.55036885,1.8545038,9.936435291113698
973383.0452033768,0.35893622,-3.9626558,0.47618872,4.007272376112805
973384.2043361474,11.476387,-6.9107184,8.255533,15.735924265576413
973385.3634689179,10.538367,-4.4603806,18.298569,21.582163968687347
973386.5226016884,0.3278284,2.0531151,18.918331,19.03223583553061
973387.6817344589,-9.28209,4.1038375,10.990627,14.959697819395792
973388.8408672295,-10.770479,1.562569,1.0815945,10.936849931841994
973390.0,-1.0433079,-2.785345,0.36850783,2.997071264417768
973390.8860706063,10.021499,-6.269419,8.889653,14.790604695717176
973392.0452033768,9.344306,-3.9985495,18.973368,21.52424553820668
973393.2043361474,-0.37807947,1.8353605,19.605097,19.694448980106163
973394.3634689179,-9.176803,2.8786685,11.153344,14.727441326178734
973395.5226016884,-9.971248,0.088537596,1.040915,10.025823139305542
973396.6817344589,-0.84948236,-3.802331,0.13400285,3.898371208250991
973397.8408672295,8.636005,-6.3412066,8.710185,13.807925486405754
973399.0,6.8221807,-3.3763933,18.334461,19.851817080062432
973400.8860706063,-2.4096584,2.0722585,19.10737,19.369881187359223
973402.0452033768,-10.026285,2.316335,10.744158,14.877121020628085
973403.2043361474,-9.162445,-1.0720228,1.5218896,9.34964059289623
973404.3634689179,1.715715,-5.360114,0.7705164,5.680510151112307
973405.5226016884,11.976505,-7.6429486,9.463951,17.07096083551444
973406.6817344589,9.01887,-3.804724,18.746042,21.147813869495824
973407.8408672295,-1.4237803,2.5819478,18.111921,18.35034841889477
973409.0,-9.932961,3.6276486,9.195946,14.013884951273111
973409.8860706063,-9.023657,0.39004403,1.2825987,9.122695841922459
973411.0452033768,1.9310769,-4.264162,1.6439278,4.961313754195601
973412.2043361474,12.175117,-7.207439,10.851838,17.830957318121033
973413.3634689179,9.02605,-3.62047,19.550058,21.835341752002968
973414.5226016884,-1.5458187,2.28762,18.68622,18.889086230044843
973415.6817344589,-10.220111,3.050958,8.896832,13.889299233809782
973416.8408672295,-9.722385,0.22254045,0.44747382,9.735220961010416
973418.0,0.32064968,-3.9219763,1.0457008,4.0716341287211
973418.8860706063,9.719993,-6.427351,10.78723,15.879339906625528
973420.0452033768,6.7240715,-2.8403819,19.664919,20.975937312823973
973421.2043361474,-2.605877,2.2971919,18.61204,18.933455007635416
973422.3634689179,-9.384986,1.8927903,8.61447,12.879041529588687
973423.5226016884,-7.142831,-1.8090385,1.1868824,7.463333358525064
973424.6817344589,3.3763933,-6.063629,1.8042527,7.17098014021676
973425.8408672295,11.457244,-7.647734,11.182059,17.742455266669634
973427.0,6.7240715,-3.1059947,18.77715,20.18518522917341
973427.8860706063,-3.4051082,2.579555,16.913074,17.444223627929343
973429.0452033768,-10.270362,2.6656997,7.367764,12.91782632106966
973430.2043361474,-7.444337,-0.93084127,0.9093051,7.557212092060817
973431.3634689179,4.249805,-5.7358007,1.9908996,7.411068305273246
973432.5226016884,13.479251,-7.918133,11.856859,19.620706997266204
973433.6817344589,8.714972,-3.4481807,19.1313,21.303692797039588
973434.8408672295,-1.6558924,2.1033661,16.834108,17.045624680447208
973436.0,-8.980584,2.28762,7.3581924,11.833304257090399
973437.8860706063,-7.181117,-0.9667349,1.3998512,7.37987812343188
973439.0452033768,2.2062612,-4.979642,2.1488314,5.855074663607238
973440.2043361474,9.0428,-6.2933483,11.629534,16.019504540474056
973441.3634689179,4.36945,-1.8305746,18.987726,19.56979395189794
973442.5226016884,-4.682921,2.5053747,17.20501,18.00608287717629
973443.6817344589,-10.480937,1.5290682,7.0231853,12.708785217964632
973444.8408672295,-6.78868,-2.5699832,1.3496002,7.383252026750968
973446.0,4.1732316,-6.9585767,2.3522286,8.448114053661882
973446.8860706063,10.847053,-7.7625937,11.952576,17.91034597018898
973448.0452033768,4.8312817,-2.4000869,18.755613,19.516011862008988
973449.2043361474,-4.6996713,2.7183435,16.07077,16.963076080267278
973450.3634689179,-9.839638,1.8401463,5.647263,11.49331082706879
973451.5226016884,-4.8599963,-2.5460541,0.9691278,5.5714597915513435
973452.6817344589,7.0399356,-7.422801,3.1203523,10.695572280802166
973453.8408672295,13.582147,-8.260319,13.311748,20.73427649875621
973455.0,6.7240715,-2.6680925,19.74867,21.031923875256123
973455.8860706063,-3.7784019,2.555626,16.025305,16.66187100876803
973457.0452033768,-9.887496,2.1464386,5.494117,11.513257463605814
973458.2043361474,-5.6687994,-1.9573988,1.3089207,6.138401265685577
973459.3634689179,4.836067,-6.5541754,3.022243,8.687848522707055
973460.5226016884,10.607761,-7.111723,13.036563,18.249744445192075
973461.6817344589,4.4651666,-1.8257889,19.447165,20.0365527077475
973462.8408672295,-4.735565,2.1512244,16.623533,17.41824307128791
973464.0,-9.461558,0.8279462,6.487174,11.501739051279786
973464.8860706063,-4.2545905,-3.8501892,1.952613,6.061204065716306
973466.0452033768,6.609212,-7.889418,2.8595252,10.681829618988642
973467.2043361474,11.172488,-7.418015,12.306726,18.20183890406255
973468.3634689179,3.9674416,-1.2802058,18.277033,18.746451798216462
973469.5226016884,-5.568297,3.125138,15.376827,16.6499017290548
973470.6817344589,-9.66017,1.6463208,5.790838,11.382577096055913
973471.8408672295,-2.9791706,-3.4816813,2.445552,5.194062641456883
973473.0,9.076301,-8.143066,3.9746203,12.825223984481873
973474.8860706063,13.366785,-7.764987,13.63479,20.612458919073532
973476.0452033768,5.075358,-1.4261732,18.913546,19.634547387670494
973477.2043361474,-5.6257267,3.2998202,14.903031,16.26769643318875
973478.3634689179,-10.813552,2.5388756,4.9844275,12.174699736409748
973479.5226016884,-5.130395,-2.0650797,1.8521109,5.832308445999397
973480.6817344589,6.501531,-6.975327,3.7784019,10.256774006421981
973481.8408672295,11.409386,-6.9418263,13.804687,19.207613710306042
973483.0,4.1469097,-1.1150951,19.423235,19.892268724487487
973483.8860706063,-5.343364,2.5699832,15.441436,16.54068614740254
973485.0452033768,-9.444808,1.2921704,5.2739697,10.894441651411892
973486.2043361474,-3.8717253,-3.278284,2.5316968,5.669822878225239
973487.3634689179,6.420172,-7.312727,4.0224786,10.529715987317557
973488.5226016884,9.571632,-6.3364205,13.16578,17.467230086783772
973489.6817344589,2.1488314,-0.33979294,17.997063,18.128078007711377
973490.8408672295,-6.4943523,2.9049904,14.579989,16.223182803036167
973492.0,-9.475916,1.0768087,5.6448703,11.08228594285826
973492.8860706063,-2.6345918,-3.9722273,3.0868514,5.678760009119463
973494.0452033768,9.227054,-8.437394,4.4220943,13.262091125770645
973495.2043361474,12.412014,-7.274441,13.28064,19.579350913865273
973496.3634689179,3.984192,-0.7226582,17.42037,17.88477877145231
973497.5226016884,-5.5826545,3.381179,12.711128,14.288848019654884
973498.6817344589,-8.88726,2.21344,4.4843097,10.197634060247214
973499.8408672295,-2.6154485,-2.9576344,4.0607653,5.663743189967188
973501.0,8.624041,-7.6381626,5.3385777,12.697087182998196
973501.8860706063,11.25624,-6.7312503,13.534288,18.84647503396309
973503.0452033768,3.1873536,-0.8518753,17.377298,17.68771891112551
973504.2043361474,-5.8626246,2.1703677,13.062885,14.481706656225068
973505.3634689179,-9.521381,0.8805902,4.9269977,10.75673935648263
973506.5226016884,-4.168446,-3.9482985,4.245019,7.140391404564546
973507.6817344589,6.3603497,-7.7267003,4.761887,11.082937951332182
973508.8408672295,8.681471,-6.118666,12.725485,16.57540288586139
973510.0,1.5027462,-0.18664683,17.114079,17.180942442107316
973511.8860706063,-6.094737,2.1751535,13.254318,14.749713810540706
973513.0452033768,-8.037778,0.021536173,5.936805,9.992596889300422
973514.2043361474,-0.99066395,-5.29072,5.3074703,7.559257514175033
973515.3634689179,10.021499,-8.863332,5.2404685,14.3684239375346
973516.5226016884,10.763301,-6.4417086,12.598661,17.778372172300703
973517.6817344589,2.2062612,0.19861138,16.204773,16.355479294243256
973518.8408672295,-6.2909555,3.1706033,11.990863,13.907179508215176
973520.0,-8.494823,1.3831009,6.2622404,10.643807623604532
973520.8860706063,-1.301742,-4.307235,6.0995226,7.579642572555764
973522.0452033768,10.533582,-8.281855,5.379257,14.438901546301851
973523.2043361474,12.177509,-6.089951,12.440729,18.443182119117164
973524.3634689179,3.8214743,0.2680057,16.238274,16.68403534460021
973525.5226016884,-4.718815,3.022243,12.0794,13.315895468021443
973526.6817344589,-7.341442,1.3232782,6.4536734,9.863961485520246
973527.8408672295,-1.5601761,-3.9817991,7.3079414,8.467282978713182
973529.0,7.8798466,-7.16676,5.9679127,12.209439517518929
973529.8860706063,7.939669,-4.477131,12.132044,15.174634672329281
973531.0452033768,0.2967206,1.2108115,15.862588,15.911499164464065
973532.2043361474,-6.826967,2.6130557,12.481409,14.464477492660166
973533.3634689179,-8.600112,0.16271774,7.5400534,11.438566726225199
973534.5226016884,-1.902362,-5.312256,6.9107184,8.921719217318968
973535.6817344589,9.064336,-8.427822,5.262005,13.44912887158886
973536.8408672295,9.327556,-5.5060816,11.926254,16.110734619858604
973538.0,1.4285661,0.8829831,15.443829,15.534874136541815
973538.8860706063,-5.2500405,2.967206,11.203596,12.723513666801802
973540.0452033768,-5.9296265,0.54079723,6.800645,9.038899517612911
973541.2043361474,1.6104271,-5.4797597,7.686021,9.575811225509801
973542.3634689179,12.129651,-8.76283,6.2598476,16.220398113669308
973543.5226016884,10.971483,-5.6640134,12.459872,17.541462232979683
973544.6817344589,2.060294,0.57429796,15.314611,15.463244795146236
973545.8408672295,-5.5060816,2.5604117,10.835088,12.42061893091884
973547.0,-7.542446,0.71787244,6.0755935,9.711676934508779
973547.8860706063,-1.8832186,-4.714029,6.606819,8.331784863220363
973549.0452033768,7.9492407,-7.757808,5.6687994,12.4703367760795
973550.2043361474,7.865489,-4.8647823,12.373728,15.448015039269553
973551.3634689179,0.5814767,0.67001426,15.745336,15.770308811628967
973552.5226016884,-5.017928,1.7540016,11.182059,12.381218296495202
973553.6817344589,-5.932019,-0.6221561,7.135652,9.300185863424032
973554.8408672295,0.088537596,-6.0684147,7.5161242,9.660518560973173
973556.0,8.123923,-8.200496,6.063629,13.038936160806447
973557.8860706063,5.860232,-4.5106316,11.938218,14.043118084680003
973559.0452033768,-1.9286839,1.3424214,14.127729,14.321824028340043
973560.2043361474,-7.6118407,2.553233,9.588383,12.50584687852664
973561.3634689179,-7.7745585,0.023929082,6.700143,10.263344907550199
973562.5226016884,0.15075321,-6.094737,8.131102,10.16284238606003
973563.6817344589,11.306491,-9.487881,7.212225,16.427806124186727
973564.8408672295,9.662563,-6.044486,13.115529,17.37578877872904
973566.0,1.1581675,0.045465253,14.132515,14.179964713373288
973566.8860706063,-5.0897155,2.28762,8.76283,10.388724596611475
973568.0452033768,-6.3938503,0.5910483,5.7358007,8.609882079440082
973569.2043361474,-0.64129937,-5.1136446,7.729093,9.289752665153177
973570.3634689179,8.446965,-7.9253116,6.9394336,13.502500522389493
973571.5226016884,7.0949726,-4.792995,13.070064,15.62491632709986
973572.6817344589,0.17228939,0.17468229,14.788172,14.7902071871198
973573.8408672295,-4.374236,1.0169859,9.657777,10.650861818943282
973575.0,-5.0633936,-1.1390243,6.781502,8.539560906774742
973575.8860706063,0.87819725,-6.7240715,7.791309,10.32903015197946
973577.0452033768,8.533111,-8.293819,6.738429,13.675081072195622
973578.2043361474,6.0301285,-4.3096275,12.304334,14.364260304618004
973579.3634689179,-0.99784267,0.99784267,13.905189,13.976611217096456
973580.5226016884,-5.1016803,1.5697477,8.815474,10.305524322893007
973581.6817344589,-4.608741,-1.1629534,6.31967,7.907666098448553
973582.8408672295,2.8164527,-7.317513,7.6644845,10.96461239475644
973584.0,11.076772,-9.334735,7.729093,16.4186185187079
973584.8860706063,7.50416,-5.0418572,13.697006,16.411603050732975
973586.0452033768,-0.63412064,0.6269419,14.0463705,14.0746470419446
973587.2043361474,-5.721443,2.163189,8.035385,10.098599345958576
973588.3634689179,-6.109094,-0.10050214,6.401029,8.848971829530344
973589.5226016884,0.77290934,-6.1425953,7.6716633,9.858158228391762
973590.6817344589,9.011692,-8.224425,7.7267003,14.44138694203258
973591.8408672295,6.2861695,-4.2856984,13.596504,15.580374154060255
973593.0,-0.8710185,0.45704544,14.646991,14.679983280496202
973594.8860706063,-5.235683,1.2802058,8.511574,10.074631274856596
973596.0452033768,-5.4749737,-1.1342385,6.396243,8.495514022448727
973597.2043361474,0.9547703,-6.817395,7.286405,10.023979186720815
973598.3634689179,7.733879,-8.028207,7.7434506,13.572988588226632
973599.5226016884,4.3287706,-3.7018287,13.57736,14.723671254180054
973600.6817344589,-2.2804415,0.72744405,14.192338,14.392777570262338
973601.8408672295,-5.278755,0.95237744,8.521146,10.06887313911353
973603.0,-4.6278844,-2.0028641,7.374943,8.934123509112752
973603.8860706063,2.8212388,-7.992313,6.50871,10.686428838517312
973605.0452033768,9.631455,-8.942298,7.65252,15.208243859441135
973606.2043361474,5.498903,-4.2043395,13.613255,15.27203707858563
973607.3634689179,-1.6439278,0.73701566,13.661112,13.77939301171289
973608.5226016884,-4.9963923,1.7803236,7.374943,9.084232074835233
973609.6817344589,-3.9171906,-1.2323477,6.50871,7.695867002133265
973610.8408672295,4.2545905,-7.5137315,6.7240715,10.943986426978734
973612.0,11.00977,-8.741293,8.372786,16.36241987502292
973613.8860706063,6.6307483,-4.3048415,14.0870495,16.153744054352398
973615.0452033768,-0.5072965,-0.05025107,13.828616,13.838009083116125
973616.2043361474,-4.5704546,0.8566611,7.865489,9.137222811119107
973617.3634689179,-5.0394645,-1.8712541,7.362978,9.11653658918841
973618.5226016884,1.2538838,-7.238547,6.2981343,9.67653258744825
973619.6817344589,6.2909555,-7.3222985,7.97317,12.520527795383966
973620.8408672295,2.4383733,-2.763809,13.409857,13.907140946257893
973622.0,-3.0078855,0.5360114,13.890832,14.22286528988671
973622.8860706063,-5.1399665,0.4091873,8.35125,9.814788150036838
973624.0452033768,-4.1014442,-3.0868514,8.052135,9.549208037822854
973625.2043361474,4.094266,-8.77958,6.5781045,11.70963269569444
973626.3634689179,8.920761,-8.511574,8.789151,15.141863956508063
973627.5226016884,3.5103962,-3.2902486,13.883653,14.693687010249858
973628.6817344589,-2.9097762,0.72983694,12.964776,13.307324157141847
973629.8408672295,-5.4031863,1.3496002,6.867646,8.841968359684607
973631.0,-4.0176926,-2.1775463,6.7551794,8.15573481931106
973631.8860706063,5.1878247,-8.19571,5.9870563,11.398597749784829
973633.0452033768,10.373257,-8.32732,9.6912775,16.458115893152996
973634.2043361474,5.154324,-3.7137933,14.979605,16.27107502681141
973635.3634689179,-0.9858781,-0.3326142,13.326105,13.366662347240101
973636.5226016884,-3.9100118,0.45465255,6.2933483,7.423013811281347
973637.6817344589,-3.228033,-2.9097762,6.147381,7.528431957741031
973638.8408672295,4.3622713,-8.229211,5.671192,10.904666124104336
973640.0,7.4874096,-7.4563017,9.959284,14.520505340801712
973640.8860706063,2.3282995,-2.7374868,14.661348,15.095361463674147
973642.0452033768,-2.656128,-0.48097453,13.093993,13.369330766158106
973643.2043361474,-4.5895977,-0.51208234,6.5972476,8.052969096332788
973644.3634689179,-3.0629225,-4.2785196,6.2119894,8.14100955129662
973645.5226016884,4.8647823,-9.030835,5.4773664,11.628569572542757
973646.6817344589,6.9155045,-7.365371,10.6364765,14.669953128494088
973647.8408672295,1.0313433,-2.0435436,14.926961,15.101453709596202
973649.0,-3.8836899,0.72983694,12.395264,13.009930008576008
973650.8860706063,-5.0945015,0.6867646,6.0803795,7.962198566560348
973652.0452033768,-1.9956853,-3.7903664,6.5541754,7.8298692477493015
973653.2043361474,7.85831,-9.030835,5.4319015,13.145895586038527
973654.3634689179,9.923389,-7.542446,11.339992,16.85104030819169
973655.5226016884,3.1394954,-2.342657,15.3337555,15.82619761408439
973656.6817344589,-2.8212388,0.53840435,12.155973,12.49067440883211
973657.8408672295,-5.314649,0.93802,6.046879,8.104944241279023
973659.0,-2.9791706,-3.5534685,5.8745894,7.484209808856842
973659.8860706063,5.7501583,-8.229211,5.156717,11.286096064435606
973661.0452033768,6.8054304,-6.544604,11.64389,14.990860508261697
973662.2043361474,0.5623334,-1.952613,15.843445,15.973217141469954
973663.3634689179,-3.878904,-0.49054617,12.304334,12.910583525529498
973664.5226016884,-5.503689,-0.9763065,6.1378093,8.301594424797548
973665.6817344589,-2.5891266,-5.6616206,5.565904,8.350856944433183
973666.8408672295,5.6329055,-9.239018,4.8576035,11.861087207312258
973668.0,5.3385777,-6.5182815,11.739607,14.450148029920957
973668.8860706063,-1.0600582,-1.4501023,14.993962,15.101172687089454
973670.0452033768,-4.7236004,0.2919348,11.038485,12.010236374091734
973671.2043361474,-5.111252,-0.5910483,6.31967,8.149384271792373
973672.3634689179,-0.3254355,-6.1880603,6.6714277,9.10527023747366
973673.5226016884,9.320377,-9.786994,5.597012,14.628097015890653
973674.6817344589,8.080851,-6.7049284,12.49098,16.318112608194845
973675.8408672295,0.47140288,-1.5171037,15.190181,15.27302927138513
973677.0,-4.3120203,0.8518753,9.9927845,10.91672811138037
973677.8860706063,-5.7381935,0.5072965,5.647263,8.066956909115326
973679.0452033768,-1.6199988,-4.9317837,6.2622404,8.134035984858887
973680.2043361474,7.231368,-8.052135,5.783659,12.271115378722914
973681.3634689179,6.1617384,-5.2476473,13.098779,15.39749439311711
973682.5226016884,-0.28954187,-1.1103094,16.065985,16.106908315329683
973683.6817344589,-3.7592585,0.11246668,10.602976,11.250234365581388
973684.8408672295,-4.714029,-0.9547703,6.6235695,8.185678265112386
973686.0,-0.057429794,-6.401029,6.2622404,8.9550055984054
973686.8860706063,6.688178,-8.049743,6.101916,12.11459723625961
973688.0452033768,3.7281508,-4.395772,13.055707,14.271419170263819
973689.2043361474,-2.603484,-0.47618872,15.077714,15.308244318049907
973690.3634689179,-5.068179,0.15314612,9.253376,10.551533514493903
973691.5226016884,-4.7236004,-1.7540016,6.2239537,8.007903721413388
973692.6817344589,1.5912839,-7.9061685,5.757337,9.908915890871233
973693.8408672295,8.915976,-9.349092,6.97772,14.682939952728814
973695.0,5.1471453,-5.3768644,14.110979,15.953792773310692
973696.8860706063,-1.5482116,-1.2132044,14.869531,14.999059178312315
973698.0452033768,-4.2833056,0.5312256,7.97317,9.066440721142268
973699.2043361474,-4.1995535,-1.3735292,5.6903353,7.204356174498939
973700.3634689179,2.4168372,-7.475445,5.360114,9.510741406027442
973701.5226016884,8.717364,-8.423037,7.324692,14.163018756844496
973702.6817344589,4.580026,-4.625491,13.993727,15.43360620536516
973703.8408672295,-1.3400285,-1.5051392,14.800137,14.936705647864855
973705.0,-3.907619,-0.37090075,8.186138,9.078541125674079
973705.8860706063,-4.139731,-2.7374868,5.62812,7.5037951375910605
973707.0452033768,1.9669704,-8.190925,5.1016803,9.848216427024198
973708.2043361474,5.8985186,-7.7243075,8.099994,12.651772635845864
973709.3634689179,0.9763065,-3.3955367,14.297626,14.727693407280894
973710.5226016884,-3.9817991,-0.9404129,14.278482,14.853085494925667
973711.6817344589,-5.3074703,-0.60301286,7.681235,9.355973312271283
973712.8408672295,-3.8932614,-3.979406,5.616155,7.907866553349959
973714.0,4.2019467,-9.523774,4.6733494,11.410469836391368
973714.8860706063,7.7195215,-8.530717,9.262947,14.770454693334942
973716.0452033768,1.5649619,-3.8597608,14.98439,15.552453274444138
973717.2043361474,-3.6300416,-0.78008807,13.184923,13.697734627689934
973718.3634689179,-5.1830387,0.34936458,6.408208,8.249307579834824
973719.5226016884,-3.306999,-3.6372204,5.671192,7.505200418712425
973720.6817344589,5.771694,-9.1983385,5.2261114,12.051312092690496
973721.8408672295,8.535503,-8.1526375,10.512045,15.805802724045378
973723.0,2.3522286,-3.8836899,15.376827,16.03317919858532
973723.8860706063,-2.031579,-1.6750357,12.462265,12.73739010785728
973725.0452033768,-4.1229806,-0.72505116,6.1593456,7.447295242759822
973726.2043361474,-3.046172,-4.718815,5.623334,7.947846509172469
973727.3634689179,4.0799084,-8.868117,4.955713,10.947522231831664
973728.5226016884,4.972463,-6.609212,10.555118,13.409608030857465
973729.6817344589,-0.7106937,-2.4383733,14.668527,14.886787236845347
973730.8408672295,-3.2591407,-1.1797037,11.600819,12.107547249255365
973732.0,-3.8166883,-1.3974583,6.3723145,7.558200272982056
973733.8860706063,-0.9404129,-6.456066,5.903304,8.798531851124846
973735.0452033768,7.4586945,-10.141145,5.518046,13.744954609363804
973736.2043361474,6.4417086,-7.3079414,11.943005,15.412234932778986
973737.3634689179,-0.75855184,-2.730308,15.09925,15.3628556340067
973738.5226016884,-4.3168063,-0.3565433,10.153109,11.038458321811774
973739.6817344589,-5.2978983,-0.37807947,5.675978,7.773506077650056
973740.8408672295,-1.5458187,-6.070808,5.5395823,8.362489897429294
973742.0,7.2194037,-9.260554,5.778873,13.087131974600803
973742.8860706063,6.2119894,-6.6809993,12.584304,15.543142253634844
973744.0452033768,-0.15553902,-2.943277,15.577831,15.85420734537153
973745.2043361474,-3.153853,-1.0074143,9.94014,10.47702512820569
973746.3634689179,-4.405344,-1.536247,5.6999073,7.365870880753904
973747.5226016884,-0.48336744,-7.205046,5.649656,9.168693738068916
973748.6817344589,6.477602,-8.686256,6.034914,12.402844752528994
973749.8408672295,3.8573678,-5.2380757,12.732664,14.2981626763827
973751.0,-1.926291,-2.0770442,15.254789,15.51558239512638
973751.8860706063,-3.9315479,-0.98827106,9.626669,10.44540590946991
973753.0452033768,-4.42688,-2.5580187,6.384279,8.179226403138054
973754.2043361474,0.9164838,-8.525931,5.0873227,9.970571409220172
973755.3634689179,6.956184,-8.942298,6.4225655,13.023153879320104
973756.5226016884,2.658521,-4.924605,13.292604,14.422648488203615
973757.6817344589,-3.3859649,-1.4142087,14.541702,14.997527849882184
973758.8408672295,-5.573083,0.48815325,8.72215,10.362116016667375
973760.0,-5.204575,-1.9119335,6.3627424,8.439643445537556
973760.8860706063,2.9265265,-8.525931,5.0657864,10.340128075724605
973762.0452033768,9.796566,-8.949476,7.1739383,15.084137920316788
973763.2043361474,4.891104,-5.2643976,14.101407,15.826764034677169
973764.3634689179,-1.1509888,-2.1823323,14.766636,14.971335553044183
973765.5226016884,-4.376629,-0.14357449,7.9516335,9.077663265187908
973766.6817344589,-4.8528175,-2.8044882,5.388829,7.775247246453741
973767.8408672295,2.390515,-8.449359,3.381179,9.409495252464236
973769.0,6.544604,-7.7147355,7.7219143,12.727016374952958
973770.8860706063,1.2873845,-3.854975,14.996355,15.537337429157231
973772.0452033768,-3.390751,-1.8018597,15.111215,15.591430643103605
973773.2043361474,-5.5898333,-1.0026284,8.703007,10.392008028880868
973774.3634689179,-4.2785196,-4.7834234,5.9559484,8.755580548125536
973775.5226016884,4.711636,-9.557275,3.0270288,11.0771802629618
973776.6817344589,6.7910733,-7.6453414,8.827438,13.509018592494824
973777.8408672295,-0.11485959,-3.1873536,15.077714,15.411355396675658
973779.0,-5.1016803,-0.33500713,13.326105,14.273207282583124
973779.8860706063,-7.085401,0.54797596,7.6142335,10.415360616707478
973781.0452033768,-4.23784,-4.5393467,5.932019,8.588003594827025
973782.2043361474,6.9466124,-9.626669,3.5486827,12.390372422840002
973783.3634689179,8.6551485,-8.083243,10.595797,15.890919640452223
973784.5226016884,1.0887731,-3.852582,16.34117,16.824436153966875
973785.6817344589,-4.350307,-0.68915755,13.089208,13.810411839993584
973786.8408672295,-7.157188,0.37807947,6.6020336,9.744492383316251
973788.0,-4.505846,-4.7499228,4.084694,7.716808916599649
973788.8860706063,5.3768644,-8.427822,2.8786685,10.40315273234819
973790.0452033768,5.879375,-6.4919596,11.442886,14.410143297262978
973791.2043361474,-0.7705164,-3.0030997,17.463444,17.736521070151976
973792.3634689179,-4.4962745,-1.0887731,12.983919,13.783470674731923
973793.5226016884,-5.9870563,-1.5171037,6.7910733,9.179603659303394
973794.6817344589,-1.5338541,-7.130866,3.5056105,8.09266725423411
973795.8408672295,7.1212945,-9.262947,3.3955367,12.16736175025573
973797.0,4.7020645,-6.200025,12.5173025,14.73881211086197
973797.8860706063,-2.761416,-2.0483294,16.50628,16.86055607310626
973799.0452033768,-6.7910733,0.5431901,11.464422,13.33591781036442
973800.2043361474,-7.599876,-0.52165395,6.1282377,9.776785533427022
973801.3634689179,-0.59583414,-7.0710435,3.309392,7.8298627006446155
973802.5226016884,9.487881,-9.291662,4.785816,14.115909583808653
973803.6817344589,6.2837768,-6.458459,14.29284,16.8962368234024
973804.8408672295,-1.4046371,-2.4407663,17.23133,17.4599278086369
973806.0,-6.300527,0.77530223,10.380435,12.167627739818348
973807.8860706063,-7.6261983,-0.54797596,4.656599,8.952267445204138
973809.0452033768,-0.34218585,-6.793466,1.6750357,7.005284865397746
973810.2043361474,7.7219143,-7.965991,5.2883267,12.290295861148273
973811.3634689179,4.010514,-5.156717,15.065749,16.42110671341265
973812.5226016884,-2.1966896,-2.2517266,17.317476,17.60087193551705
973813.6817344589,-5.604191,-0.5312256,10.378042,11.806477593098645
973814.8408672295,-5.8674107,-3.0748868,4.3646646,7.932952428054885
973816.0,2.5077677,-9.061943,1.1150951,9.46842895386855
973816.8860706063,7.5089455,-8.657541,6.769537,13.310293380801951
973818.0452033768,1.2490981,-4.7547083,15.96309,16.702926073883358
973819.2043361474,-5.3649,-1.1055236,16.001377,16.91296545069155
973820.3634689179,-8.657541,0.6173703,9.215089,12.659068983615033
973821.5226016884,-7.006435,-3.0389934,4.010514,8.626113541952979
973822.6817344589,4.6757426,-9.200731,1.3591717,10.409772692326026
973823.8408672295,9.684099,-8.76283,8.674292,15.678402493620483
973825.0,2.6633067,-4.814531,17.011183,17.878849470469703
973825.8860706063,-4.292877,-0.6867646,15.108822,15.721861873856612
973827.0452033768,-8.399107,1.3065279,7.731486,11.490338955797753
973828.2043361474,-6.669035,-3.1394954,2.7685947,7.8738539363334805
973829.3634689179,4.929391,-8.76283,1.4046371,10.151802333698061
973830.5226016884,8.1119585,-8.217246,10.428293,15.55880128493475
973831.6817344589,0.9475916,-4.680528,18.403856,19.013342364453194
973832.8408672295,-5.049036,-1.3998512,15.092072,15.975699833328788
973834.0,-8.542682,-0.39004403,7.2337613,11.20075232490391
973834.8860706063,-5.2715764,-5.336185,1.2849916,7.6102293991267125
973836.0452033768,5.879375,-9.15048,1.0600582,10.92803998933076
973837.2043361474,6.389065,-7.293584,11.674998,15.176366410945837
973838.3634689179,-1.2945633,-3.1036017,18.549824,18.85216719851927
973839.5226016884,-6.5733185,0.1483603,14.108586,15.56543368494609
973840.6817344589,-8.095208,-0.28714898,6.4967456,10.383763792146775
973841.8408672295,-1.1916683,-6.5996404,1.3496002,6.840814823277786
973843.0,10.55751,-9.736743,2.7470584,14.622295014844953
973843.8860706063,8.104779,-7.274441,13.641969,17.455894497225945
973845.0452033768,-0.89734054,-2.6968074,18.145422,18.366663544463
973846.2043361474,-7.889418,1.4859959,12.017184,14.452121348902272
973847.3634689179,-10.547939,0.5814767,4.8839254,11.638292813515607
973848.5226016884,-2.7566302,-6.264633,0.7896597,6.889716911894503
973849.6817344589,8.463716,-8.856153,4.3024487,12.98372054937246
973850.8408672295,5.5324035,-6.482388,15.462972,17.65594363782747
973852.0,-2.5293038,-2.5053747,18.911152,19.243335211631027
973853.8860706063,-8.377571,0.6532639,12.0147915,14.661707416653643
973855.0452033768,-9.662563,-1.3184924,3.5462897,10.376883760269884
973856.2043361474,0.031107806,-7.6716633,-0.42833054,7.683674416297043
973857.3634689179,8.243568,-8.51636,5.7405863,13.169629155294073
973858.5226016884,2.5891266,-5.185432,16.750357,17.724749397520423
973859.6817344589,-5.180646,-0.96434194,17.829557,18.591991586992716
973860.8408672295,-9.84921,1.3113136,10.478544,14.440442006447757
973862.0,-8.643184,-2.2421548,3.15146,9.469085908186651
973862.8860706063,3.9961565,-9.016478,0.13639577,9.863303001685091
973864.0452033768,10.708263,-9.28209,7.934883,16.241504224330885
973865.2043361474,3.1921394,-5.472581,17.638126,18.741461670383913
973866.3634689179,-5.34815,-0.48576033,16.585245,17.43298664115609
973867.5226016884,-10.796802,2.0674727,8.580969,13.945551468888215
973868.6817344589,-8.681471,-2.4000869,1.1509888,9.080370646020903
973869.8408672295,5.5443683,-8.700614,0.0598227,10.31718384921371
973871.0,11.0791645,-8.758043,10.004748,17.307402628685022
973871.8860706063,3.275891,-5.017928,19.514166,20.41356749646227
973873.0452033768,-4.608741,-0.33500713,16.889145,17.509881273534006
973874.2043361474,-9.274912,0.9093051,7.362978,11.877048177098299
973875.3634689179,-5.723836,-4.192375,-0.59583414,7.11992450928453
973876.5226016884,6.4919596,-8.506788,0.28236315,10.704705062422509
973877.6817344589,6.7767158,-7.004042,11.962148,15.429629488281229
973878.8408672295,-1.9861137,-2.6992004,19.73192,20.014469698572775
973880.0,-8.92794,1.0193789,15.549117,17.958905464004598
973880.8860706063,-11.533817,0.51208234,6.5230675,13.26052685687809
973882.0452033768,-4.120588,-5.881768,0.0598227,7.181783833213256
973883.2043361474,9.686492,-9.588383,2.390515,13.83762182551532
973884.3634689179,7.674056,-7.4060507,14.0870495,17.668777152863658
973885.5226016884,-2.0244002,-2.4264088,19.284447,19.541636367773464
973886.6817344589,-9.669742,2.163189,12.912132,16.275946970351953
973887.8408672295,-11.883182,1.0002356,4.087087,12.606140005814641
973889.0,-1.9143264,-6.147381,-0.2991135,6.445495140854597
973890.8860706063,11.339992,-9.334735,4.4125223,15.336331019128608
973892.0452033768,7.6884136,-7.1165085,16.412956,19.47155673214582
973893.2043361474,-1.742037,-2.318728,19.573988,19.787677950469504
973894.3634689179,-9.272519,1.7324655,12.256475,15.466163866313982
973895.5226016884,-10.772872,-0.37807947,2.6752713,11.106520235547368
973896.6817344589,0.0,-6.949005,-1.3065279,7.070762734210745
973897.8408672295,8.695828,-8.078458,5.8554463,13.234997530620536
973899.0,2.6250203,-4.943748,17.7482,18.609943017186165
973899.8860706063,-5.7501583,-0.5431901,19.133694,19.98643595155056
973901.0452033768,-11.105487,1.7013576,10.916447,15.665097327947112
