timestamp,accel_x,accel_y,accel_z,magnitude
404932.90768286027,0.7776951,2.2517266,9.652991,9.942601148381272
404934.06372816593,0.7322299,2.3809435,9.612311,9.929832593622475
404935.2197734716,0.7872668,2.3761578,9.667349,9.986168013441596
404936.3758187773,0.8518753,2.2995846,9.6410265,9.948023564156324
404937.53186408296,0.90451926,2.3067634,9.643419,9.956648155119849
404938.6879093886,0.87580436,2.3546216,9.6410265,9.962964826289603
404939.84395469434,0.87580436,2.3306925,9.614705,9.931853454596292
404941.0,0.90451926,2.340264,9.5500965,9.87417509672171
404941.90768286027,0.885376,2.3522286,9.521381,9.847515737240279
404943.06372816593,0.84708947,2.318728,9.463951,9.780614941739087
404944.2197734716,0.8638398,2.3259068,9.432844,9.753697123177767
404945.3758187773,0.8614469,2.340264,9.418487,9.743039757713433
404946.53186408296,0.80880296,2.3282995,9.509417,9.823652705063122
404947.6879093886,0.79205257,2.3450499,9.554882,9.87027741966038
404948.84395469434,0.7705164,2.2947989,9.538132,9.84051622444342
404950.0,0.7489802,2.3139422,9.593168,9.896674801222726
404950.90768286027,0.7322299,2.318728,9.530953,9.836245485582749
404952.06372816593,0.7202653,2.3019776,9.490273,9.79199492380459
404953.2197734716,0.7202653,2.2589052,9.538132,9.828397471327415
404954.3758187773,0.72744405,2.2612982,9.521381,9.81322273987321
404955.53186408296,0.677193,2.2493336,9.492666,9.77899789297932
404956.6879093886,0.6819788,2.2325833,9.47113,9.754579783465218
404957.84395469434,0.6748001,2.2110472,9.502238,9.779397318047359
404959.0,0.6125845,2.2086542,9.483095,9.756152106432273
404959.90768286027,0.57669085,2.239762,9.466345,9.744782902258148
404961.06372816593,0.52165395,2.1799393,9.47113,9.732757146468574
404962.2197734716,0.49054617,2.2038684,9.538132,9.801715845648873
404963.3758187773,0.44747382,2.1990826,9.564454,9.824203653188595
404964.53186408296,0.4498667,2.160796,9.595561,9.846126665146345
404965.6879093886,0.4737958,2.1392598,9.5907755,9.837880343010578
404966.84395469434,0.43790218,2.112938,9.643419,9.881892294528095
404968.0,0.39243692,2.134474,9.609919,9.851930226073268
404969.90768286027,0.36850783,2.108152,9.631455,9.86635841092854
404971.06372816593,0.32064968,2.0722585,9.648206,9.873446739945598
404972.2197734716,0.33979294,2.0914016,9.662563,9.892145552079459
404973.3758187773,0.3278284,2.0650797,9.636241,9.860485091377587
404974.53186408296,0.28714898,2.029186,9.66017,9.875167582791244
404975.6879093886,0.30150643,2.0531151,9.652991,9.873521306365848
404976.84395469434,0.25364825,1.9765421,9.657777,9.861222677210442
404978.0,0.24646953,1.9573988,9.631455,9.83143340050091
404978.90768286027,0.21536173,1.9358627,9.617098,9.812365617403577
404980.06372816593,0.18903974,1.9717562,9.631455,9.833030252804205
404981.2197734716,0.1172525,1.9597918,9.631455,9.829519696563434
404982.3758187773,0.09810923,1.9310769,9.576418,9.769670676407102
404983.53186408296,0.107680865,1.9430413,9.605133,9.800284924933655
404984.6879093886,0.08614469,1.9550059,9.626669,9.823554601681154
404985.84395469434,0.07657306,1.9669704,9.624276,9.82351894751417
404987.0,0.071787246,1.9621847,9.60274,9.80142528988526
404988.90768286027,0.08614469,1.9765421,9.629062,9.83020725013118
404990.06372816593,0.08375178,1.926291,9.5907755,9.782667635606067
404991.2197734716,0.10050214,1.9597918,9.54531,9.744938561919815
404992.3758187773,0.12203831,1.9669704,9.5405245,9.741944037956904
404993.53186408296,0.1172525,1.9765421,9.521381,9.725079072634301
404994.6879093886,0.1172525,2.010043,9.490273,9.70151032701271
404995.84395469434,0.105287954,2.0172215,9.4998455,9.712225937301397
404997.0,0.11246668,2.0937946,9.459166,9.688779386313602
404997.90768286027,0.107680865,2.1177237,9.45438,9.689254358444144
404999.06372816593,0.13400285,2.1536174,9.416093,9.660167289133241
405000.2197734716,0.11246668,2.1775463,9.399343,9.648938049049901
405001.3758187773,0.107680865,2.187118,9.370628,9.623084195256485
405002.53186408296,0.1172525,2.2277975,9.416093,9.676757578569978
405003.6879093886,0.16511066,2.2206187,9.444808,9.703752217451727
405004.84395469434,0.17946811,2.2038684,9.459166,9.714168319654624
405006.0,0.25604117,2.2014754,9.447201,9.703692995552833
405006.90768286027,0.22493336,2.1775463,9.43763,9.688197093473304
405008.06372816593,0.2368979,2.2612982,9.442415,9.712301024812435
405009.2197734716,0.31107804,2.2828343,9.485488,9.76127986415566
405010.3758187773,0.36372203,2.215833,9.54531,9.805873372377206
405011.53186408296,0.45465255,2.21344,9.518989,9.78351558270045
405012.6879093886,0.3804724,2.263691,9.5500965,9.822087321438097
405013.84395469434,0.30389932,2.2732627,9.58599,9.856535008815612
405015.0,0.28714898,2.2325833,9.6003475,9.86070762414697
405015.90768286027,0.33979294,2.237369,9.609919,9.872781901308052
405017.06372816593,0.3230426,2.2301903,9.650599,9.910205162075599
405018.2197734716,0.35893622,2.2517266,9.679314,9.94425600041408
405019.3758187773,0.4139731,2.28762,9.6410265,9.917357055467242
405020.53186408296,0.4977249,2.2589052,9.633848,9.907644021954516
405021.6879093886,0.51208234,2.2445478,9.648206,9.919077687358875
405022.84395469434,0.48815325,2.3378713,9.629062,9.920825107353382
405024.0,0.5336185,2.316335,9.593168,9.883270147678411
405024.90768286027,0.50968945,2.3235137,9.588383,9.879047919927203
405026.06372816593,0.5336185,2.3091564,9.56206,9.851392968854872
405027.2197734716,0.47140288,2.4359803,9.554882,9.871777485903152
405028.3758187773,0.41875893,2.4096584,9.609919,9.916267232820337
405029.53186408296,0.46661708,2.3139422,9.652991,9.937418943084245
405030.6879093886,0.52165395,2.2589052,9.643419,9.91818055672
405031.84395469434,0.50968945,2.2924058,9.657777,9.939193340963035
405033.0,0.48815325,2.2947989,9.631455,9.913088368614082
405033.90768286027,0.43072346,2.2732627,9.624276,9.898481425268306
405035.06372816593,0.41875893,2.263691,9.578811,9.851562117687568
405036.2197734716,0.40679437,2.3019776,9.576418,9.85760438651752
405037.3758187773,0.42593765,2.3067634,9.578811,9.861855831383265
405038.53186408296,0.41875893,2.263691,9.631455,9.902756252779362
405039.6879093886,0.45943835,2.28762,9.636241,9.914707735073774
405040.84395469434,0.4977249,2.2995846,9.645813,9.928621648527361
405042.0,0.47618872,2.3043704,9.621883,9.905428365453984
405042.90768286027,0.49293905,2.2852273,9.638634,9.918090446534363
405044.06372816593,0.5144752,2.2445478,9.629062,9.900581526240964
405045.2197734716,0.57669085,2.239762,9.684099,9.9564491459013
405046.3758187773,0.6221561,2.2182257,9.626669,9.898502892077603
405047.53186408296,0.69155043,2.1895108,9.662563,9.931632457432103
405048.6879093886,0.6867646,2.1799393,9.638634,9.905909668145256
405049.84395469434,0.677193,2.1895108,9.688885,9.956256346930338
405051.0,0.677193,2.1512244,9.684099,9.943245457103297
405052.90768286027,0.69872916,2.1368668,9.631455,9.890366402565759
405054.06372816593,0.68915755,2.1368668,9.679314,9.936310047510608
405055.2197734716,0.6269419,2.1942968,9.643419,9.909769149784815
405056.3758187773,0.5934412,2.2301903,9.617098,9.890121089939978
405057.53186408296,0.51926106,2.234976,9.619491,9.889355735743827
405058.6879093886,0.50968945,2.28762,9.636241,9.917163365091971
405059.84395469434,0.42593765,2.2732627,9.631455,9.90525474694739
405061.0,0.39243692,2.2756555,9.662563,9.93467354369676
405061.90768286027,0.3828653,2.2038684,9.614705,9.871482867304572
405063.06372816593,0.39722276,2.184725,9.655384,9.90743404894239
405064.2197734716,0.442688,2.1464386,9.679314,9.924328231145418
405065.3758187773,0.49293905,2.0459363,9.731957,9.956898678831758
405066.53186408296,0.53840435,1.9645776,9.775029,9.985020597943786
405067.6879093886,0.5838696,1.9286839,9.772636,9.978233294748092
405068.84395469434,0.6532639,1.8305746,9.7917795,9.982820386335147
405070.0,0.67001426,1.8329676,9.765458,9.958557088304365
405071.90768286027,0.7130866,1.7803236,9.760673,9.947300238393607
405073.06372816593,0.6460852,1.7803236,9.7415285,9.923928442037873
405074.2197734716,0.62454903,1.823396,9.657777,9.848222735367989
405075.3758187773,0.5838696,1.8664683,9.6912775,9.88663073077554
405076.53186408296,0.50968945,1.9071478,9.705635,9.904359990413875
405077.6879093886,0.45943835,1.9478272,9.698457,9.90278660677688
405078.84395469434,0.42593765,1.926291,9.7176,9.915834289577882
405080.0,0.36850783,1.9645776,9.763065,9.965580834121916
405080.90768286027,0.3254355,1.9669704,9.782208,9.983309780548755
405082.06372816593,0.3230426,1.9215052,9.839638,10.03070360074934
405083.2197734716,0.31825677,1.8856115,9.798959,9.983807669635071
405084.3758187773,0.33500713,1.8664683,9.801352,9.983107468116314
405085.53186408296,0.3517575,1.8281817,9.782208,9.957789665497316
405086.6879093886,0.28714898,1.8210031,9.779816,9.95205043299021
405087.84395469434,0.33979294,1.8042527,9.820495,9.990641075154093
405089.0,0.34936458,1.8114314,9.727171,9.900565387385992
405089.90768286027,0.34457877,1.7779307,9.708028,9.875504025188851
405091.06372816593,0.34218585,1.7731448,9.688885,9.855740772815217
405092.2197734716,0.37568656,1.7898953,9.696064,9.86704224519297
405093.3758187773,0.36850783,1.8521109,9.638634,9.821882619570756
405094.53186408296,0.39004403,1.8975761,9.607526,9.800892063547371
405095.6879093886,0.40200856,1.9191123,9.626669,9.824324859138441
405096.84395469434,0.39482984,1.9645776,9.643419,9.849415503395985
405098.0,0.40200856,1.9550059,9.619491,9.824371025690606
405098.90768286027,0.38765112,1.9885067,9.614705,9.825832510469898
405100.06372816593,0.42593765,2.00765,9.605133,9.821947940804641
405101.2197734716,0.43311638,2.0363648,9.619491,9.84220394507167
405102.3758187773,0.46661708,2.031579,9.662563,9.884845393912732
405103.53186408296,0.48097453,2.0148287,9.6912775,9.9101831855349
405104.6879093886,0.49293905,2.0196145,9.69367,9.914084410802902
405105.84395469434,0.5312256,2.0387578,9.674527,9.90127298274748
405107.0,0.61497736,1.9813279,9.686492,9.90615892597605
405108.90768286027,0.64369226,1.9430413,9.767851,9.980013145146183
405110.06372816593,0.69872916,1.9502201,9.763065,9.980431807878018
405111.2197734716,0.6795859,2.005257,9.748708,9.975981169829453
405112.3758187773,0.66283554,2.0220072,9.7176,9.947844682640502
405113.53186408296,0.677193,2.0244002,9.748708,9.9796840730693
405114.6879093886,0.6580497,2.0531151,9.712814,9.949224433095983
405115.84395469434,0.6484781,2.0698655,9.705635,9.945059969024562
405117.0,0.67001426,2.0746512,9.684099,9.926473198073209
405117.90768286027,0.6843717,2.108152,9.727171,9.97649864141252
405119.06372816593,0.7106937,2.1009734,9.708028,9.95816159798139
405120.2197734716,0.6748001,2.0770442,9.684099,9.927297780640744
405121.3758187773,0.66283554,2.08183,9.708028,9.950837891894889
405122.53186408296,0.66283554,2.0914016,9.674527,9.92017057712712
405123.6879093886,0.6293348,2.0770442,9.69367,9.9336505358375
405124.84395469434,0.6173703,2.079437,9.6912775,9.93106559772401
405126.0,0.58626246,2.057901,9.674527,9.908336534027054
405126.90768286027,0.58626246,2.0363648,9.686492,9.915574241401668
405128.06372816593,0.5838696,1.9669704,9.755886,9.969312308744087
405129.2197734716,0.60540575,1.9765421,9.719993,9.937378865438033
405130.3758187773,0.5288327,1.9573988,9.765458,9.973727690116407
405131.53186408296,0.5072965,1.9502201,9.715207,9.921993510893124
405132.6879093886,0.49533197,1.9095407,9.751101,9.948651675360917
405133.84395469434,0.50968945,1.8425392,9.729565,9.91560230788846
405135.0,0.5025107,1.8784329,9.767851,9.959515064581101
405135.90768286027,0.4785816,1.8138243,9.760673,9.93930260893882
405137.06372816593,0.44747382,1.8090385,9.775029,9.951082607681872
405138.2197734716,0.4091873,1.8018597,9.806137,9.978700090078586
405139.3758187773,0.3613291,1.7779307,9.815709,9.981970720513575
405140.53186408296,0.3254355,1.8090385,9.818102,9.98867636083713
405141.6879093886,0.3278284,1.770752,9.794173,9.958356232796634
405142.84395469434,0.32064968,1.7875023,9.779816,9.94699862690477
405144.0,0.27039862,1.8042527,9.743921,9.913245667963455
405145.90768286027,0.2656128,1.8162172,9.748708,9.920005178746818
405147.06372816593,0.30150643,1.7946811,9.667349,9.837145066828564
405148.2197734716,0.2991135,1.7587874,9.679314,9.842353454071695
405149.3758187773,0.31347096,1.7827165,9.657777,9.82593500608795
405150.53186408296,0.31107804,1.7803236,9.643419,9.811312433983957
405151.6879093886,0.28954187,1.74443,9.724778,9.884238851255423
405152.84395469434,0.27757734,1.7563945,9.770244,9.930742099100536
405154.0,0.28236315,1.7492158,9.7415285,9.901356592899774
405154.90768286027,0.31107804,1.7659662,9.763065,9.92637115771608
405156.06372816593,0.2368979,1.7492158,9.782208,9.940194660330253
405157.2197734716,0.2392908,1.7898953,9.794173,9.959257503742723
405158.3758187773,0.25364825,1.7635733,9.755886,9.91724961187309
405159.53186408296,0.30389932,1.7779307,9.758279,9.92357805494268
405160.6879093886,0.27039862,1.8353605,9.73435,9.909552638800509
405161.84395469434,0.30868515,1.8521109,9.748708,9.927885423240609
405163.0,0.31586388,1.8473251,9.770244,9.948369104296175
405163.90768286027,0.3278284,1.8856115,9.736743,9.92306235175552
405165.06372816593,0.3613291,1.8449322,9.739136,9.918926533027637
405166.2197734716,0.3613291,1.8401463,9.798959,9.976787790045025
405167.3758187773,0.39482984,1.8616825,9.760673,9.944470309990859
405168.53186408296,0.37568656,1.8856115,9.69367,9.882505208154301
405169.6879093886,0.37329367,1.9430413,9.731957,9.931049526984385
405170.84395469434,0.416366,1.8784329,9.7176,9.906241495428949
405172.0,0.39243692,1.8281817,9.755886,9.93345693650453
405172.90768286027,0.37568656,1.8903974,9.739136,9.928016556583062
405174.06372816593,0.34218585,1.9597918,9.777423,9.977769068094153
405175.2197734716,0.2967206,1.9550059,9.775029,9.973027781688979
405176.3758187773,0.34218585,1.978935,9.679314,9.885463792901232
405177.53186408296,0.33022133,1.9765421,9.648206,9.854118114691714
405178.6879093886,0.30868515,2.0148287,9.66017,9.872877272663438
405179.84395469434,0.30868515,2.0363648,9.593168,9.811775598572032
405181.0,0.40679437,2.0172215,9.648206,9.86521886518297
405181.90768286027,0.41875893,2.0866158,9.66017,9.891825360729152
405183.06372816593,0.5049036,2.0435436,9.652991,9.87983974244901
405184.2197734716,0.45465255,2.0746512,9.614705,9.846493730252813
405185.3758187773,0.46661708,2.1201165,9.538132,9.782054361040117
405186.53186408296,0.39243692,2.1512244,9.483095,9.731950674677686
405187.6879093886,0.4115802,2.1775463,9.45438,9.710633724637942
405188.84395469434,0.36611494,2.2038684,9.497452,9.756673130023048
405190.0,0.3804724,2.2469406,9.516596,9.785657910141051
405191.90768286027,0.36850783,2.266084,9.492666,9.76635256907016
405193.06372816593,0.37807947,2.1990826,9.447201,9.7071373278459
405194.2197734716,0.42833054,2.3115492,9.480701,9.767825664236556
405195.3758187773,0.416366,2.3570144,9.478309,9.775848762498546
405196.53186408296,0.40679437,2.3737648,9.526167,9.825889206431738
405197.6879093886,0.46422416,2.3306925,9.504631,9.797226242485419
405198.84395469434,0.45225963,2.3618002,9.480701,9.78091664462226
405200.0,0.39722276,2.3809435,9.4137,9.718252186543333
405200.90768286027,0.42833054,2.3594074,9.495059,9.793182105125608
405202.06372816593,0.45943835,2.392908,9.468738,9.777223103036912
405203.2197734716,0.40200856,2.3809435,9.45438,9.757858577418794
405204.3758187773,0.45465255,2.2971919,9.473523,9.758659620981568
405205.53186408296,0.42115182,2.316335,9.504631,9.791873525218517
405206.6879093886,0.40679437,2.371372,9.58599,9.883323889357655
405207.84395469434,0.4498667,2.3259068,9.710421,9.995223783752724
405209.0,0.442688,2.2756555,9.729565,10.001950595221375
405209.90768286027,0.4450809,2.234976,9.662563,9.927655234600454
405211.06372816593,0.4139731,2.2708697,9.686492,9.95772816399231
405212.2197734716,0.37807947,2.2756555,9.662563,9.934116758387972
405213.3758187773,0.37090075,2.2421548,9.715207,9.977478266895028
405214.53186408296,0.39961565,2.2565124,9.696064,9.96319215769598
405215.6879093886,0.4498667,2.2541194,9.696064,9.964792592388527
405216.84395469434,0.4139731,2.2780485,9.648206,9.92213473574673
405218.0,0.45943835,2.1942968,9.727171,9.982178004182352
405218.90768286027,0.5025107,2.1823323,9.830067,10.081929800178473
405220.06372816593,0.5144752,2.1823323,9.80853,10.061536650032057
405221.2197734716,0.46901,2.1919038,9.73435,9.98909318061727
405222.3758187773,0.46183127,2.1775463,9.696064,9.948299005492823
405223.53186408296,0.44747382,2.1895108,9.655384,9.910632197310019
405224.6879093886,0.4402951,2.187118,9.629062,9.884137793497823
405225.84395469434,0.40679437,2.1966896,9.617098,9.873170757148682
405227.0,0.39243692,2.2206187,9.559668,9.822036775394032
405228.90768286027,0.40200856,2.1942968,9.581204,9.837480338908918
405230.06372816593,0.42593765,2.2062612,9.526167,9.787587500308845
405231.2197734716,0.36611494,2.1392598,9.483095,9.728286766960164
405232.3758187773,0.34457877,2.2852273,9.495059,9.772264003539865
405233.53186408296,0.35893622,2.2589052,9.54531,9.81551990007228
405234.6879093886,0.39722276,2.2517266,9.54531,9.815345210348417
405235.84395469434,0.46661708,2.1990826,9.497452,9.759881673118505
405237.0,0.5001178,2.1966896,9.456773,9.721425748631422
405237.90768286027,0.49293905,2.1536174,9.456773,9.711416600379508
405239.06372816593,0.5072965,2.1009734,9.564454,9.805621820391393
405240.2197734716,0.5144752,2.0339718,9.571632,9.798870606250205
405241.3758187773,0.4977249,2.0220072,9.559668,9.783838483088111
405242.53186408296,0.5288327,1.9693633,9.621883,9.83558276350035
405243.6879093886,0.6221561,1.8592896,9.760673,9.955640282893128
405244.84395469434,0.7154795,1.8138243,9.822887,10.01453835785553
405246.0,0.71787244,1.8090385,9.801352,9.992720458538695
405246.90768286027,0.71787244,1.8114314,9.767851,9.960298073612984
405248.06372816593,0.677193,1.8186102,9.7176,9.909474414861418
405249.2197734716,0.69155043,1.7827165,9.708028,9.894550407440928
405250.3758187773,0.64129937,1.7779307,9.688885,9.87151432148026
405251.53186408296,0.6484781,1.6678569,9.648206,9.812754430000439
405252.6879093886,0.5910483,1.7061435,9.667349,9.834525937904996
405253.84395469434,0.6173703,1.7563945,9.7415285,9.917834705381239
405255.0,0.5551547,1.7228938,9.813316,9.978864199039213
405255.90768286027,0.51926106,1.7133222,9.846817,10.008242105431611
405257.06372816593,0.50968945,1.6534995,9.810924,9.962332742170258
405258.2197734716,0.49293905,1.6511066,9.758279,9.909245730802091
405259.3758187773,0.50968945,1.6534995,9.70085,9.853950205599862
405260.53186408296,0.43790218,1.6534995,9.70085,9.850497938594222
405261.6879093886,0.47140288,1.6463208,9.705635,9.855553947141171
405262.84395469434,0.4977249,1.483603,9.877925,10.001110450510684
405264.0,0.50968945,1.4285661,9.949712,10.064658629106827
405265.90768286027,0.39482984,1.4477094,9.916211,10.029107323482176
405267.06372816593,0.31586388,1.4740313,9.820495,9.935525165238792
405268.2197734716,0.2919348,1.4716384,9.755886,9.870575320253709
405269.3758187773,0.2632199,1.4429235,9.755886,9.865527081084126
405270.53186408296,0.2584341,1.4405307,9.770244,9.879250209465358
405271.6879093886,0.34218585,1.3735292,9.794173,9.895933426065572
405272.84395469434,0.2656128,1.5075321,9.758279,9.877611666485743
405274.0,0.27518442,1.5242825,9.839638,9.960805167046537
405274.90768286027,0.33740005,1.4812101,9.901854,10.017711055495562
405276.06372816593,0.3852582,1.5338541,9.885103,10.010813833118817
405277.2197734716,0.35893622,1.5577831,9.820495,9.94975604935611
405278.3758187773,0.39722276,1.5171037,9.820495,9.944923911355014
405279.53186408296,0.3326142,1.6343563,9.820495,9.96111814840163
405280.6879093886,0.37090075,1.536247,9.858782,9.98464845324479
405281.84395469434,0.39482984,1.5553902,9.870746,10.00033778796129
405283.0,0.4115802,1.6463208,9.954497,10.098107791094016
405283.90768286027,0.43790218,1.6199988,9.928176,10.069003581200386
405285.06372816593,0.46901,1.6032485,9.920997,10.060643995632747
405286.2197734716,0.49533197,1.5841051,9.885103,10.02347265417326
405287.3758187773,0.5240469,1.4883888,9.858782,9.984263062284018
405288.53186408296,0.57429796,1.5553902,9.832459,9.97127408147009
405289.6879093886,0.5623334,1.6056414,9.834852,9.980912634626831
405290.84395469434,0.6125845,1.6104271,9.863567,10.012926104668088
405292.0,0.6389065,1.6487137,9.842031,9.999601621328269
405292.90768286027,0.6125845,1.665464,9.810924,9.970118346274143
405294.06372816593,0.63412064,1.718108,9.775029,9.945109151566864
405295.2197734716,0.5647263,1.7659662,9.794173,9.968118035385773
405296.3758187773,0.57908374,1.742037,9.753493,9.924749699027698
405297.53186408296,0.49054617,1.8186102,9.789387,9.968955634378894
405298.6879093886,0.45225963,1.8138243,9.818102,9.994479688638235
405299.84395469434,0.51208234,1.8257889,9.870746,10.051236741158727
405301.0,0.54079723,1.8042527,9.84921,10.027697994731042
405302.90768286027,0.5240469,1.8688612,9.786994,9.977600858638365
405304.06372816593,0.5072965,1.8856115,9.7415285,9.935303618116395
405305.2197734716,0.43550926,1.8880045,9.696064,9.887764479378642
405306.3758187773,0.5025107,1.8377534,9.724778,9.90964992883755
405307.53186408296,0.46661708,1.8640754,9.662563,9.851783205349268
405308.6879093886,0.4115802,1.7540016,9.593168,9.760880705656565
405309.84395469434,0.35415038,1.8927903,9.626669,9.817374070849558
405311.0,0.3804724,1.9095407,9.69367,9.887281881337167
405311.90768286027,0.39482984,1.8329676,9.763065,9.941483743356882
405313.06372816593,0.39243692,1.8473251,9.662563,9.84539184036055
405314.2197734716,0.4450809,1.8521109,9.66017,9.846181809328103
405315.3758187773,0.46422416,1.8856115,9.578811,9.773671519617434
405316.53186408296,0.51926106,1.899969,9.593168,9.793282724685188
405317.6879093886,0.5838696,1.7683591,9.583597,9.762854555649488
405318.84395469434,0.60540575,1.8688612,9.593168,9.792243388683847
405320.0,0.63651353,1.8592896,9.617098,9.815838284738865
405321.90768286027,0.67001426,1.8353605,9.643419,9.839359597205734
405323.06372816593,0.6939433,1.9334698,9.657777,9.873830024507
405324.2197734716,0.7489802,1.9143264,9.708028,9.92327690606853
405325.3758187773,0.832732,1.8903974,9.67692,9.89493939345516
405326.53186408296,0.89494765,1.8521109,9.643419,9.86036389245855
405327.6879093886,0.89734054,1.8856115,9.6003475,9.824837041621402
405328.84395469434,0.86862564,1.8832186,9.578811,9.80074706191178
405330.0,0.8877689,1.8903974,9.492666,9.719693603056115
405330.90768286027,0.92366254,1.9047549,9.490273,9.723503757977484
405332.06372816593,0.9547703,1.7898953,9.404129,9.620444571815025
405333.2197734716,1.0193789,1.899969,9.373021,9.617823985141712
405334.3758187773,1.0744157,2.0387578,9.389771,9.668438441439667
405335.53186408296,1.1605604,2.0220072,9.432844,9.716684593380398
405336.6879093886,1.2586696,2.0267932,9.399343,9.697411441677588
405337.84395469434,1.40703,1.9430413,9.255769,9.561610883934083
405339.0,1.4692456,2.0267932,9.272519,9.604487592477103
405339.90768286027,1.536247,2.0028641,9.286877,9.623804022381524
405341.06372816593,1.61282,2.0483294,9.368236,9.72423197147211
405342.2197734716,1.6750357,2.0698655,9.329948,9.70247481146273
405343.3758187773,1.7252867,2.1033661,9.294055,9.684018870843401
405344.53186408296,1.7396442,2.1009734,9.270126,9.663109604365316
405345.6879093886,1.6989647,2.1153307,9.30602,9.69345723994327
405346.84395469434,1.6343563,2.0435436,9.294055,9.655394828979064
405348.0,1.6032485,2.084223,9.4137,9.77405437658709
405348.90768286027,1.5338541,2.010043,9.52856,9.858318159581573
405350.06372816593,1.4405307,1.9406484,9.650599,9.948633371919284
405351.2197734716,1.4022441,1.8521109,9.6410265,9.916954939677092
405352.3758187773,1.2562767,1.7587874,9.7176,9.9550647423993
405353.53186408296,1.1581675,1.6798215,9.760673,9.97165430823028
405354.6879093886,1.0098072,1.5601761,9.820495,9.99479775129082
405355.84395469434,0.9093051,1.4429235,9.8922825,10.038232765359872
405357.0,0.72983694,1.2921704,10.026285,10.135519582283374
405357.90768286027,0.598227,1.2275618,10.141145,10.232673425228288
405359.06372816593,0.3852582,1.1533817,10.215324,10.287446605039472
405360.2197734716,0.16750357,1.0839874,10.26079,10.319248885137984
405361.3758187773,-0.009571632,1.0863802,10.337363,10.394295904430477
405362.53186408296,-0.25604117,1.0815945,10.3924,10.451668838188723
405363.6879093886,-0.44747382,1.0457008,10.413936,10.475866837393554
405364.84395469434,-0.6532639,1.040915,10.390007,10.462432949382148
405366.0,-0.8279462,1.0313433,10.387614,10.471470217956279
405366.90768286027,-0.93084127,1.0169859,10.361292,10.452612003705008
405368.06372816593,-1.0528796,0.9451987,10.325398,10.421890418392522
405369.2197734716,-1.2060257,0.9763065,10.363685,10.479200310626176
405370.3758187773,-1.3160994,0.99066395,10.358899,10.489057211432824
405371.53186408296,-1.4213874,1.0385221,10.306255,10.455513493754966
405372.6879093886,-1.5410328,1.0696299,10.294291,10.463809889630586
405373.84395469434,-1.5984626,1.0720228,10.303863,10.482075571664593
405375.0,-1.639142,1.1294526,10.306255,10.496730052584747
405375.90768286027,-1.7109293,1.1773108,10.251218,10.459484225951064
405377.06372816593,-1.7085364,1.1844895,10.275147,10.48335623153884
405378.2197734716,-1.7085364,1.2155973,10.258397,10.470505357216588
405379.3758187773,-1.6104271,1.3113136,10.160288,10.370365039134512
405380.53186408296,-1.586498,1.3400285,10.150716,10.360969433285296
405381.6879093886,-1.5290682,1.4094229,10.086107,10.298256011905348
405382.84395469434,-1.4524952,1.5003533,10.038249,10.253157821707658
405384.0,-1.3687434,1.5553902,9.985605,10.198284384411163
405385.90768286027,-1.2562767,1.5817122,9.897068,10.101089031743841
405387.06372816593,-1.1079165,1.6630712,9.885103,10.085065498441283
405388.2197734716,-0.9188767,1.8162172,9.861175,10.069049194834818
405389.3758187773,-0.7441944,1.8808258,9.873138,10.07820345904869
405390.53186408296,-0.571905,1.9406484,9.858782,10.064232413103921
405391.6879093886,-0.41875893,1.9932925,9.796566,10.006062133745074
405392.84395469434,-0.25125536,2.060294,9.719993,9.939124938464841
405394.0,-0.15075321,2.1727605,9.722385,9.963352086969051
405394.90768286027,-0.09571633,2.2565124,9.681706,9.94165181937179
405396.06372816593,-0.045465253,2.318728,9.617098,9.892782246103387
405397.2197734716,-0.047858164,2.4335876,9.581204,9.885550520853718
405398.3758187773,0.047858164,2.495803,9.564454,9.884842099739704
405399.53186408296,0.13639577,2.4479449,9.58599,9.894556196192426
405400.6879093886,0.18425392,2.4264088,9.581204,9.885387157889609
405401.84395469434,0.25604117,2.4814458,9.530953,9.852014790248827
405403.0,0.30868515,2.5460541,9.394557,9.73834581580498
405404.90768286027,0.30629224,2.474267,9.387379,9.71281095323152
405406.06372816593,0.42115182,2.4288018,9.442415,9.758875348696568
405407.2197734716,0.48336744,2.340264,9.483095,9.779548581134671
405408.3758187773,0.5240469,2.2612982,9.444808,9.72586720347275
405409.53186408296,0.54079723,2.318728,9.392164,9.689257235973027
405410.6879093886,0.5838696,2.3235137,9.447201,9.74624165298054
405411.84395469434,0.5886554,2.3330853,9.43045,9.732583901489125
405413.0,0.63172776,2.3067634,9.423272,9.722051868423568
405413.90768286027,0.69872916,2.2206187,9.487881,9.769301700735063
405415.06372816593,0.703515,2.1751535,9.521381,9.7919825495631
405416.2197734716,0.72983694,2.1249025,9.629062,9.887704869854218
405417.3758187773,0.7130866,2.0028641,9.722385,9.952121743145698
405418.53186408296,0.6269419,1.9167194,9.6912775,9.898875137424364
405419.6879093886,0.50968945,1.8281817,9.6410265,9.826058397819466
405420.84395469434,0.39004403,1.7827165,9.629062,9.800461594463544
405422.0,0.3254355,1.6989647,9.66017,9.813830737556378
405422.90768286027,0.2991135,1.6367491,9.782208,9.922701741839118
405424.06372816593,0.35893622,1.5147108,9.842031,9.96437445214829
405425.2197734716,0.39722276,1.4668527,9.935354,10.050905524870648
405426.3758187773,0.4450809,1.4237803,10.021499,10.131914407317796
405427.53186408296,0.5264398,1.3567789,10.021499,10.126619873062792
405428.6879093886,0.6293348,1.1916683,9.918604,10.009737306070122
405429.84395469434,0.67001426,1.301742,9.9425335,10.049747446666986
405431.0,0.71787244,1.3519931,9.973641,10.090428186129675
405431.90768286027,0.7681235,1.2873845,9.959284,10.071480047875212
405433.06372816593,0.7968384,1.3496002,9.935354,10.058212129442817
405434.2197734716,0.74658734,1.430959,9.877925,10.008917954582017
405435.3758187773,0.70830077,1.5027462,9.827674,9.967101503078668
405436.53186408296,0.6484781,1.4381378,9.729565,9.85663224774027
405437.6879093886,0.55036885,1.5697477,9.753493,9.894323595565016
405438.84395469434,0.6006199,1.639142,9.7917795,9.946178991806867
405440.0,0.6819788,1.6630712,9.803744,9.967160945698373
405441.90768286027,0.7202653,1.74443,9.753493,9.934407069791991
405443.06372816593,0.8279462,1.665464,9.674527,9.851687059540586
405444.2197734716,0.911698,1.7276796,9.650599,9.846325766612699
405445.3758187773,0.92366254,1.8042527,9.6410265,9.851795382921775
405446.53186408296,0.9284483,1.8090385,9.672134,9.883562751063563
405447.6879093886,0.95955616,1.7875023,9.710421,9.920090145454337
405448.84395469434,0.99305683,1.7300725,9.7176,9.920235001393158
405450.0,1.0313433,1.7109293,9.710421,9.913789591740102
405450.90768286027,1.0026284,1.7611804,9.638634,9.849379954889887
405452.06372816593,0.92605543,1.6774286,9.574025,9.763877307102721
405453.2197734716,0.9093051,1.7348584,9.502238,9.702015071189107
405454.3758187773,0.7944455,1.8616825,9.473523,9.68734449758062
405455.53186408296,0.8183746,1.8401463,9.4495945,9.661817199976364
405456.6879093886,0.8351249,1.8568966,9.358664,9.577582703719532
405457.84395469434,0.8805902,1.8951832,9.327556,9.558789640693757
405459.0,0.93323416,1.9382555,9.358664,9.602726292338398
405459.90768286027,0.9954498,1.8353605,9.33952,9.570062815869093
405461.06372816593,0.97152066,1.9286839,9.442415,9.686220883871638
405462.2197734716,1.0720228,1.9645776,9.485488,9.74593662139692
405463.3758187773,1.1390243,2.0028641,9.557275,9.831090803399402
405464.53186408296,1.1246668,2.0459363,9.56206,9.842952920657497
405465.6879093886,1.1509888,2.0555081,9.643419,9.927004521830945
405466.84395469434,1.1509888,2.010043,9.624276,9.899077563275805
405468.0,1.1222739,1.9861137,9.5907755,9.85835285569294
405468.90768286027,1.0265576,2.0220072,9.574025,9.838917030018834
405470.06372816593,0.9786994,2.0435436,9.559668,9.824519083949369
405471.2197734716,0.9954498,2.0890088,9.576418,9.852038356681398
405472.3758187773,1.0600582,2.0937946,9.629062,9.910930037802729
405473.53186408296,1.0744157,2.0698655,9.67692,9.953968704536736
405474.6879093886,1.0696299,2.1368668,9.674527,9.9652787476139
405475.84395469434,1.0480938,2.112938,9.648206,9.932315270060574
405477.0,1.1246668,2.0746512,9.60274,9.888461382858493
405478.90768286027,1.1605604,2.1536174,9.6912775,9.995290287412226
405480.06372816593,1.1605604,2.1727605,9.751101,10.057423096629147
405481.2197734716,1.2754201,2.2182257,9.770244,10.099747002136267
405482.3758187773,1.2634555,2.2038684,9.710421,10.037212348169177
405483.53186408296,1.2945633,2.2182257,9.681706,10.016578780416165
405484.6879093886,1.2610626,2.266084,9.686492,10.027638946543636
405485.84395469434,1.2155973,2.2732627,9.705635,10.04214871689339
405487.0,1.1462029,2.3474429,9.69367,10.039497364192533
405487.90768286027,1.040915,2.3737648,9.729565,10.068897578790294
405489.06372816593,1.0337363,2.3881223,9.70085,10.043815489155254
405490.2197734716,1.0098072,2.2325833,9.6003475,9.908118433555737
405491.3758187773,0.9691278,2.3737648,9.638634,9.973827420023262
405492.53186408296,0.9667349,2.41923,9.712814,10.056142697792927
405493.6879093886,0.96194905,2.340264,9.782208,10.104146422125716
405494.84395469434,1.0768087,2.2277975,9.770244,10.078703611920432
405496.0,0.9451987,2.3115492,9.696064,10.012508046368717
405496.90768286027,0.9212696,2.474267,9.6912775,10.044480795201881
405498.06372816593,0.97152066,2.5125535,9.712814,10.079460961865227
405499.2197734716,1.0457008,2.5221252,9.679314,10.057023674934433
405500.3758187773,1.1007377,2.4144442,9.696064,10.052602716272583
405501.53186408296,1.170132,2.3857293,9.662563,10.021279205733741
405502.6879093886,1.1318455,2.3976939,9.657777,10.015121909177964
405503.84395469434,1.0624512,2.4479449,9.593168,9.957414778045628
405505.0,1.0600582,2.4599094,9.6003475,9.967023114468624
405505.90768286027,1.0122001,2.5077677,9.578811,9.95324409694268
405507.06372816593,0.9667349,2.4934103,9.648206,10.011970351007843
405508.2197734716,0.9571632,2.500589,9.705635,10.06819037819509
405509.3758187773,0.92605543,2.4886243,9.6410265,10.000011076978128
405510.53186408296,0.9188767,2.2469406,9.626669,9.928032659358664
405511.6879093886,0.8638398,2.3665862,9.664956,9.987908886450182
405512.84395469434,0.81119585,2.3785505,9.719993,10.039611800670208
405514.0,0.8446966,2.2445478,9.760673,10.050982269682173
405514.90768286027,0.87819725,2.1679747,9.698457,9.976543133300064
405516.06372816593,0.8805902,2.1033661,9.612311,9.87907439043184
405517.2197734716,0.81119585,2.1153307,9.571632,9.836096879394981
405518.3758187773,0.8040171,2.1225095,9.507024,9.774200499849522
405519.53186408296,0.7202653,2.1225095,9.45438,9.716436068043382
405520.6879093886,0.63651353,2.1727605,9.418487,9.686791782288
405521.84395469434,0.5838696,2.160796,9.444808,9.70640722514176
405523.0,0.46901,2.215833,9.392164,9.661399011886683
405524.90768286027,0.33979294,2.3354783,9.373021,9.665580210121156
405526.06372816593,0.22971918,2.443159,9.380199,9.695871806111189
405527.2197734716,0.2632199,2.424016,9.375414,9.687286821159368
405528.3758187773,0.2632199,2.3833365,9.451987,9.751391482047948
405529.53186408296,0.31586388,2.4838386,9.554882,9.877499390810542
405530.6879093886,0.3804724,2.4790528,9.664956,9.985080696433334
405531.84395469434,0.4450809,2.4264088,9.657777,9.967859010539387
405533.0,0.5288327,2.421623,9.571632,9.887368766367636
405533.90768286027,0.50968945,2.392908,9.5405245,9.849233460884433
405535.06372816593,0.416366,2.4144442,9.56924,9.877917574998774
405536.2197734716,0.3828653,2.4551237,9.509417,9.82869421134541
405537.3758187773,0.31586388,2.4096584,9.554882,9.859107141587579
405538.53186408296,0.234505,2.443159,9.516596,9.828001725759007
405539.6879093886,0.19382556,2.5077677,9.52856,9.854944081955646
405540.84395469434,0.16750357,2.5340896,9.490273,9.824202215005547
405542.0,0.17946811,2.5364826,9.459166,9.794987197447771
405542.90768286027,0.16989647,2.5484471,9.502238,9.839510884218832
405544.06372816593,0.21057591,2.4981961,9.475916,9.801954397311974
405545.2197734716,0.2943277,2.5173392,9.47113,9.804383148354818
405546.3758187773,0.3254355,2.5723763,9.583597,9.928159927794825
405547.53186408296,0.42354473,2.5221252,9.643419,9.976774813152135
405548.6879093886,0.47618872,2.4120514,9.67692,9.98436419306193
405549.84395469434,0.5647263,2.371372,9.652991,9.956031147117645
405551.0,0.5360114,2.340264,9.619491,9.91457265391237
405551.90768286027,0.5312256,2.3235137,9.631455,9.921987803318853
405553.06372816593,0.46183127,2.2732627,9.629062,9.904536658774356
405554.2197734716,0.4498667,2.2325833,9.614705,9.880757080114499
405555.3758187773,0.33979294,2.2756555,9.552489,9.825686403090376
405556.53186408296,0.3254355,2.263691,9.56924,9.83872752878853
405557.6879093886,0.2991135,2.2589052,9.571632,9.83911890018071
405558.84395469434,0.26082698,2.2612982,9.583597,9.850219881872087
405560.0,0.24886245,2.2804415,9.612311,9.882250184783992
405561.90768286027,0.28714898,2.2780485,9.566847,9.838522298926616
405563.06372816593,0.2632199,2.290013,9.60274,9.875528328323757
405564.2197734716,0.31825677,2.1009734,9.626669,9.858404162678632
405565.3758187773,0.35893622,2.1727605,9.763065,10.008354589772143
405566.53186408296,0.40679437,2.0507221,9.844424,10.063976683332891
405567.6879093886,0.40440148,2.112938,9.775029,10.008957962730745
405568.84395469434,0.2991135,2.2206187,9.719993,9.974912541808122
405570.0,0.34936458,2.1679747,9.710421,9.955623833132693
405570.90768286027,0.3565433,2.1177237,9.715207,9.949729837898394
405572.06372816593,0.27518442,2.112938,9.758279,9.98820516903291
405573.2197734716,0.19143265,2.084223,9.698457,9.921728687787427
405574.3758187773,0.19382556,2.1033661,9.612311,9.841658399835849
405575.53186408296,0.22493336,2.1153307,9.56206,9.795826173958142
405576.6879093886,0.2392908,2.0698655,9.581204,9.805155448266534
405577.84395469434,0.31825677,2.110545,9.5405245,9.776364114729775
405579.0,0.36372203,2.0698655,9.511809,9.741208721492347
405579.90768286027,0.4737958,2.0459363,9.597955,9.825023052684424
405581.06372816593,0.5144752,1.8305746,9.595561,9.782151041683072
405582.2197734716,0.5695121,1.9597918,9.6912775,9.90383700963419
405583.3758187773,0.61497736,1.9597918,9.765458,9.97913578434645
405584.53186408296,0.6173703,1.8784329,9.813316,10.010535807986528
405585.6879093886,0.57429796,1.8162172,9.796566,9.980038499765019
405586.84395469434,0.4785816,1.8473251,9.708028,9.893809075463938
405588.0,0.27279153,1.8640754,9.648206,9.830415623673339
405588.90768286027,0.1196454,1.9573988,9.609919,9.807969630384445
405590.06372816593,-0.004785816,1.9669704,9.511809,9.713058525047192
405591.2197734716,-0.011964541,1.9813279,9.554882,9.7581542020755
405592.3758187773,-0.07657306,2.0028641,9.595561,9.802658768992602
405593.53186408296,-0.08375178,2.029186,9.619491,9.831541958529709
405594.6879093886,-0.07418015,2.029186,9.607526,9.819758365556966
405595.84395469434,-0.067001425,2.0937946,9.583597,9.80988259238357
405597.0,-0.06460852,2.1177237,9.578811,9.810328644042425
405598.90768286027,-0.016750356,2.08183,9.552489,9.776724544470255
405600.06372816593,0.004785816,2.0914016,9.564454,9.790442475937098
405601.2197734716,-0.055036888,2.234976,9.643419,9.899175561084757
405602.3758187773,0.0,2.1249025,9.763065,9.991628937702362
405603.53186408296,0.047858164,2.0866158,9.7917795,10.01175317700608
405604.6879093886,0.03828653,2.1201165,9.784601,10.011731946129636
405605.84395469434,0.055036888,2.0961876,9.760673,9.983374626165418
405607.0,0.09810923,2.08183,9.755886,9.976018906102134
405607.90768286027,0.1172525,2.1201165,9.652991,9.88376837893369
405609.06372816593,0.105287954,2.0363648,9.715207,9.926888445267506
405610.2197734716,0.12203831,2.0148287,9.667349,9.875832356173952
405611.3758187773,0.12682413,2.029186,9.662563,9.874148262585248
405612.53186408296,0.11485959,2.0220072,9.66017,9.870186942057725
405613.6879093886,0.09810923,2.031579,9.6410265,9.853239600656956
405614.84395469434,0.09093051,2.0387578,9.612311,9.826562190584799
405616.0,0.110073775,2.0674727,9.636241,9.85615037483038
405616.90768286027,0.09810923,2.0555081,9.684099,9.900328904232314
405618.06372816593,0.17946811,2.060294,9.698457,9.91650585386768
405619.2197734716,0.19621846,2.0650797,9.70085,9.92015859620686
405620.3758187773,0.24407662,2.0363648,9.801352,10.013633507524313
405621.53186408296,0.2967206,1.9119335,9.753493,9.943548588101514
405622.6879093886,0.38765112,1.8856115,9.758279,9.946346724381295
405623.84395469434,0.3828653,1.9478272,9.873138,10.070723440053746
405625.0,0.40200856,1.8808258,9.959284,10.143296030626086
405625.90768286027,0.41875893,1.7755378,9.925783,10.09202961171699
405627.06372816593,0.45465255,1.6774286,9.813316,9.966024611908976
405628.2197734716,0.34697166,1.8329676,9.770244,9.946749588434853
405629.3758187773,0.18903974,1.9669704,9.708028,9.907094237290742
405630.53186408296,0.15793194,1.9980782,9.688885,9.894026052836752
405631.6879093886,0.19861138,1.9167194,9.621883,9.81294513407116
405632.84395469434,0.13878867,1.9454343,9.609919,9.805841121346901
405634.0,0.08614469,2.1464386,9.619491,9.856430726701536
405635.90768286027,0.07896597,2.165582,9.614705,9.855888253230505
405637.06372816593,0.047858164,2.160796,9.617098,9.856972339368792
405638.2197734716,0.10289505,2.1799393,9.578811,9.824273149537323
405639.3758187773,0.06221561,2.2086542,9.535739,9.788377926573244
405640.53186408296,0.067001425,2.2014754,9.492666,9.744828932070238
405641.6879093886,0.0598227,2.1560102,9.554882,9.795291152990977
405642.84395469434,0.12203831,2.1727605,9.56206,9.806567849307317
405644.0,0.208183,2.1536174,9.66017,9.899509709878151
405644.90768286027,0.2057901,2.112938,9.648206,9.879004786694761
405646.06372816593,0.15314612,2.1272953,9.5405245,9.776013848321483
405647.2197734716,0.16271774,2.1177237,9.485488,9.72037619285367
405648.3758187773,0.16032484,2.1440456,9.45438,9.695769014039081
405649.53186408296,0.25125536,2.1560102,9.475916,9.72134215412094
405650.6879093886,0.28954187,2.2254045,9.502238,9.763646178131783
405651.84395469434,0.3804724,2.239762,9.495059,9.763065014496561
405653.0,0.49054617,2.2541194,9.52856,9.803833203801359
405653.90768286027,0.5312256,2.2828343,9.6003475,9.882317805055052
405655.06372816593,0.55036885,2.3330853,9.588383,9.883485288237921
405656.2197734716,0.57429796,2.1727605,9.578811,9.838918970646187
405657.3758187773,0.55036885,2.3306925,9.70085,9.99207306433988
405658.53186408296,0.5336185,2.3594074,9.815709,10.109386487586574
405659.6879093886,0.5623334,2.2924058,9.813316,10.09319147348772
405660.84395469434,0.598227,2.1966896,9.801352,10.062297042434254
405662.0,0.5910483,2.1775463,9.813316,10.06937023340748
405662.90768286027,0.6101916,2.1440456,9.7917795,10.04232100165147
405664.06372816593,0.5814767,2.0507221,9.904246,10.131024879674678
405665.2197734716,0.58626246,2.000471,9.923389,10.13998210743822
405666.3758187773,0.5144752,1.9454343,9.906639,10.108951262289898
405667.53186408296,0.49293905,1.9334698,9.88271,10.082125337379363
405668.6879093886,0.45465255,1.9885067,9.830067,10.039476334035326
405669.84395469434,0.39722276,2.0196145,9.842031,10.054959117501834
405671.0,0.43311638,2.000471,9.851603,10.061985673318876
405671.90768286027,0.63172776,1.742037,9.909033,10.080808889529283
405673.06372816593,0.59583414,1.8138243,9.937747,10.119475893032654
405674.2197734716,0.44747382,2.0028641,9.906639,10.116975521319363
405675.3758187773,0.38765112,2.1249025,9.830067,10.064576555912945
405676.53186408296,0.3852582,1.978935,9.684099,9.891732965294466
405677.6879093886,0.27757734,2.079437,9.669742,9.894696446238989
405678.84395469434,0.28475606,2.010043,9.70085,9.91099639784294
405680.0,0.31825677,1.9382555,9.698457,9.89536204167286
405681.90768286027,0.2368979,2.1272953,9.617098,9.852414924780144
405683.06372816593,0.22014755,2.290013,9.605133,9.876801325916656
405684.2197734716,0.2943277,2.3474429,9.636241,9.922411882895645
405685.3758187773,0.4402951,2.3354783,9.633848,9.922668287913233
405686.53186408296,0.53840435,2.2995846,9.6410265,9.926094929545977
405687.6879093886,0.63651353,2.3306925,9.60274,9.902014568310296
405688.84395469434,0.6389065,2.342657,9.566847,9.870197812445312
405690.0,0.7441944,2.2971919,9.564454,9.864567717266326
405690.90768286027,0.859054,2.266084,9.535739,9.838873347395676
405692.06372816593,0.90451926,2.057901,9.45438,9.717942827672529
405693.2197734716,0.9164838,2.2445478,9.514202,9.818247149005328
405694.3758187773,0.8997334,2.2445478,9.650599,9.948948490989457
405695.53186408296,0.93084127,2.2014754,9.643419,9.93521461349987
405696.6879093886,1.0050215,1.9669704,9.605133,9.855841958839813
405697.84395469434,0.7872668,2.2230117,9.4998455,9.788188522734396
405699.0,0.6197632,2.41923,9.461558,9.785594514608617
405699.90768286027,0.6580497,2.4407663,9.461558,9.793439095958568
405701.06372816593,0.70112205,2.424016,9.495059,9.82464101688877
405702.2197734716,0.7322299,2.4072654,9.451987,9.781162792871825
405703.3758187773,0.75615895,2.390515,9.483095,9.808946380825777
405704.53186408296,0.7657306,2.3665862,9.518989,9.838608904511236
405705.6879093886,0.7681235,2.3498356,9.564454,9.87879149372005
405706.84395469434,0.72983694,2.3546216,9.652991,9.962787766697438
405708.0,0.6748001,2.2828343,9.672134,9.960766222041983
405708.90768286027,0.5695121,2.2541194,9.7176,9.991854085278806
405710.06372816593,0.5551547,2.1799393,9.7415285,9.997885256839508
405711.2197734716,0.571905,2.0459363,9.80853,10.035944969637024
405712.3758187773,0.54797596,1.9717562,9.844424,10.054888565108634
405713.53186408296,0.51926106,1.9286839,9.770244,9.972317757376544
405714.6879093886,0.5240469,1.8832186,9.751101,9.945104733535317
405715.84395469434,0.5360114,1.8377534,9.784601,9.970108450229743
405717.0,0.47140288,1.8329676,9.810924,9.991807675876176
405718.90768286027,0.43311638,1.899969,9.858782,10.049530064789561
405720.06372816593,0.42593765,1.9119335,9.834852,10.028022060806098
405721.2197734716,0.40200856,1.9861137,9.820495,10.027381540395575
405722.3758187773,0.44747382,2.08183,9.7917795,10.020638439995011
405723.53186408296,0.45225963,2.1057591,9.772636,10.007156166896594
405724.6879093886,0.54079723,2.163189,9.765458,10.016786822302883
405725.84395469434,0.61497736,2.239762,9.7176,9.991320269611847
405727.0,0.677193,2.21344,9.729565,10.00111704171459
405727.90768286027,0.67240715,2.2612982,9.626669,9.91152646973489
405729.06372816593,0.66283554,2.268477,9.6003475,9.886961665414322
405730.2197734716,0.78487384,2.1464386,9.574025,9.843026989138622
405731.3758187773,0.63412064,2.112938,9.504631,9.75728581235986
405732.53186408296,0.46422416,2.3785505,9.533346,9.836548810812355
405733.6879093886,0.2680057,2.4623024,9.667349,9.979599032630482
405734.84395469434,0.22254045,2.2780485,9.645813,9.913664188946862
405736.0,0.17946811,2.390515,9.69367,9.985690203317544
405737.90768286027,0.055036888,2.3259068,9.719993,9.99455528882481
405739.06372816593,-0.033500712,2.2612982,9.6912775,9.951655712947167
405740.2197734716,-0.105287954,2.21344,9.664956,9.915733793764005
405741.3758187773,-0.18664683,2.1751535,9.67692,9.9201265351865
405742.53186408296,-0.12682413,2.134474,9.724778,9.957076416594896
405743.6879093886,-0.067001425,2.0698655,9.779816,9.996681117895994
405744.84395469434,0.004785816,1.9908996,9.873138,10.071869642144847
405746.0,0.002392908,1.9885067,9.873138,10.071396059583677
405746.90768286027,0.002392908,1.926291,9.885103,10.07104086295447
405748.06372816593,-0.031107806,1.9071478,9.904246,10.08624158223245
405749.2197734716,-0.11485959,1.8975761,9.937747,10.117944614234414
405750.3758187773,-0.22971918,1.9071478,9.887496,10.072366195821155
405751.53186408296,-0.3613291,1.9693633,9.899461,10.099914782631322
405752.6879093886,-0.46422416,1.9885067,9.86596,10.075059785841104
405753.84395469434,-0.5360114,2.1033661,9.909033,10.143983052364007
405755.0,-0.60779864,2.187118,9.815709,10.074772826490474
405755.90768286027,-0.55754757,2.2230117,9.820495,10.084382100861449
405757.06372816593,-0.47618872,2.2589052,9.877925,10.144102262165305
405758.2197734716,-0.34457877,2.3139422,9.832459,10.106943802176628
405759.3758187773,-0.27997026,2.3019776,9.834852,10.10454343744883
405760.53186408296,0.06460852,1.8042527,9.861175,10.025082266342698
405761.6879093886,-0.11246668,2.0746512,9.796566,10.01446612396925
405762.84395469434,-0.23211208,2.5412683,9.705635,10.035500552712445
405764.0,-0.10289505,2.5675905,9.770244,10.10251335987935
405764.90768286027,-0.069394335,2.5484471,9.80853,10.13442938483112
405766.06372816593,0.019143265,2.5460541,9.861175,10.184573153811929
405767.2197734716,0.14357449,2.5077677,9.84921,10.16446998595805
405768.3758187773,0.22732627,2.4790528,9.767851,10.080093907123135
405769.53186408296,0.19861138,2.5173392,9.7176,10.040328325713364
405770.6879093886,0.20339718,2.5173392,9.617098,9.943185656634025
405771.84395469434,0.28714898,2.5460541,9.576418,9.91325515295384
405773.0,0.33979294,2.5915194,9.535739,9.887454187948038
405774.90768286027,0.442688,2.6513422,9.5500965,9.921185981834888
405776.06372816593,0.5360114,2.5939124,9.56206,9.922130880179102
405777.2197734716,0.5647263,2.6465564,9.483095,9.861656420263163
405778.3758187773,0.5623334,2.708772,9.375414,9.775073005974715
405779.53186408296,0.7226582,2.627413,9.490273,9.873743745972206
405780.6879093886,0.77290934,2.6441634,9.4998455,9.891210919681626
405781.84395469434,0.92366254,2.3546216,9.502238,9.833103394942505
405783.0,0.72505116,2.6465564,9.490273,9.879030396629384
405783.90768286027,0.5623334,2.9265265,9.478309,9.93574947889885
405785.06372816593,0.55036885,2.9121692,9.495059,9.946847778766896
405786.2197734716,0.5910483,2.835596,9.473523,9.906441379207667
405787.3758187773,0.6125845,2.7709875,9.47113,9.887160106506647
405788.53186408296,0.5934412,2.656128,9.480701,9.863613935147828
405789.6879093886,0.49293905,2.577162,9.475916,9.832483761507817
405790.84395469434,0.46183127,2.4694812,9.504631,9.831054672071774
405792.0,0.48576033,2.4120514,9.533346,9.845742278272354
405792.90768286027,0.51208234,2.3665862,9.60274,9.903311268084545
405794.06372816593,0.47140288,2.2924058,9.6410265,9.921024997491347
405795.2197734716,0.4402951,2.2182257,9.631455,9.893397315798527
405796.3758187773,0.34697166,2.2206187,9.684099,9.941494363798324
405797.53186408296,0.28475606,2.2206187,9.674527,9.930191644586996
405798.6879093886,0.4450809,1.9406484,9.703242,9.90540854940024
405799.84395469434,0.52165395,1.849718,9.638634,9.8283693921744
405801.0,0.21536173,2.3785505,9.435237,9.73280948143792
405801.90768286027,0.043072347,2.6106627,9.459166,9.812911717518066
405803.06372816593,0.16032484,2.5723763,9.581204,9.921809007068152
405804.2197734716,0.2943277,2.5484471,9.624276,9.9603162570604
405805.3758187773,0.38765112,2.5436614,9.612311,9.950729092353395
405806.53186408296,0.37568656,2.574769,9.576418,9.923626227617081
405807.6879093886,0.4785816,2.5604117,9.547704,9.896635796722613
405808.84395469434,0.54558307,2.526911,9.526167,9.870704017448837
405810.0,0.6125845,2.445552,9.509417,9.837936574009474
405811.90768286027,0.69633627,2.3043704,9.54531,9.844183568860025
405813.06372816593,0.6293348,2.4910173,9.523774,9.864253680966762
405814.2197734716,0.6556568,2.6393776,9.473523,9.856157364120005
405815.3758187773,0.6748001,2.7159507,9.468738,9.873638776683826
405816.53186408296,0.6221561,2.7757733,9.451987,9.870767643599414
405817.6879093886,0.7106937,2.7039862,9.502238,9.905006507501856
405818.84395469434,0.84230363,2.68245,9.468738,9.87734846607404
405820.0,0.8710185,2.6704855,9.408915,9.819259010244993
405820.90768286027,0.571905,2.8427749,9.061943,9.514581199209138
405822.06372816593,0.63412064,2.711165,9.181588,9.59448189560244
405823.2197734716,1.170132,2.4264088,9.58599,9.957302488236532
405824.3758187773,1.3256711,2.424016,9.820495,10.201734140755493
405825.53186408296,1.2562767,2.5699832,9.789387,10.198781428730303
405826.6879093886,1.170132,2.6178415,9.729565,10.143310017236544
405827.84395469434,1.1246668,2.6130557,9.652991,10.063457196630079
405829.0,1.0863802,2.5939124,9.516596,9.923416896666279
405829.90768286027,1.0839874,2.5723763,9.444808,9.848682483917555
405831.06372816593,1.0289505,2.605877,9.33952,9.750690637128185
405832.2197734716,0.9691278,2.6250203,9.346699,9.756573295206975
405833.3758187773,0.99066395,2.6010911,9.459166,9.86016791884828
405834.53186408296,1.0983448,2.4670882,9.4998455,9.87623156928474
405835.6879093886,0.8566611,2.8475606,9.485488,9.940671617605602
405836.84395469434,0.8183746,3.0318146,9.509417,10.014521877483084
405838.0,0.7944455,3.0437791,9.468738,9.977611646817643
405838.90768286027,0.7394086,3.01985,9.392164,9.893379791716779
405840.06372816593,0.66283554,3.046172,9.272519,9.782541766434331
405841.2197734716,0.5934412,3.0629225,9.222268,9.735702016941957
405842.3758187773,0.5647263,3.1059947,9.186374,9.7136803601012
405843.53186408296,0.55754757,3.1371026,9.169623,9.707433130229054
405844.6879093886,0.59583414,3.1299238,9.121766,9.66219727986093
405845.84395469434,0.7106937,3.2088897,9.02605,9.605812680064387
405847.0,0.60540575,3.3883579,8.600112,9.26333696856427
405847.90768286027,0.6867646,3.309392,8.509181,9.155866005804047
405849.06372816593,0.92605543,3.2208543,8.628826,9.256787737629992
405850.2197734716,1.4740313,3.022243,9.241411,9.834144512632996
405851.3758187773,1.7396442,3.0366004,9.674527,10.288040464811692
405852.53186408296,1.6534995,3.2423904,9.715207,10.374603758956841
405853.6879093886,1.5817122,3.2950344,9.516596,10.194344736569791
405854.84395469434,1.5434257,3.2878556,9.277305,9.962958667027422
405856.0,1.4261732,3.2687125,9.078693,9.754030858691369
405857.90768286027,1.1533817,3.2974274,8.908797,9.569220490268506
405859.06372816593,0.93323416,3.3261423,8.923154,9.568533111452151
405860.2197734716,0.71787244,3.2878556,8.937511,9.550101473894605
405861.3758187773,0.5168682,3.304606,9.038013,9.637076970719713
405862.53186408296,0.40200856,3.3357139,9.00212,9.608681626496242
405863.6879093886,0.37329367,3.3859649,9.0571575,9.676580410863144
405864.84395469434,0.2991135,3.3763933,9.11698,9.726706787117989
405866.0,0.31347096,3.3548572,9.128944,9.730927470199909
405866.90768286027,0.2584341,3.2830698,9.200731,9.77234805100984
405868.06372816593,0.22493336,3.2136755,9.210303,9.757457998246784
405869.2197734716,0.15314612,3.1394954,9.145695,9.670761197223165
405870.3758187773,0.19861138,3.0844586,9.1983385,9.703749919281808
405871.53186408296,0.25604117,3.0389934,9.270126,9.758907419473479
405872.6879093886,0.22254045,3.070101,9.310805,9.806433304219848
405873.84395469434,0.27039862,3.0772798,9.399343,9.893958520877018
405875.0,0.33500713,3.1107805,9.353878,9.863276267813605
405875.90768286027,0.5240469,3.0940301,9.274912,9.791406437322966
405877.06372816593,0.70830077,3.0868514,9.32277,9.846033821766232
405878.2197734716,0.81119585,3.072494,9.277305,9.806459409497304
405879.3758187773,1.0193789,3.0677083,9.284483,9.831154160775991
405880.53186408296,1.1868824,3.0389934,9.284483,9.841026130133093
405881.6879093886,1.3232782,3.01985,9.301233,9.868307582224231
405882.84395469434,1.3950654,3.0413861,9.2988405,9.88254377799515
405884.0,1.4644598,3.0366004,9.253376,9.84837813512825
405884.90768286027,1.5123179,3.048565,9.303627,9.906479159873825
405886.06372816593,1.4501023,2.9504557,9.377807,9.937366333560256
405887.2197734716,1.3950654,2.8906329,9.384986,9.918665648817665
405888.3758187773,1.3208853,2.837989,9.384986,9.893274572156233
405889.53186408296,1.2802058,2.8690968,9.408915,9.919592976294384
405890.6879093886,1.1150951,2.8092742,9.428058,9.900693726410976
405891.84395469434,0.97152066,2.8044882,9.485488,9.938988331560214
405893.0,0.8805902,2.7973096,9.502238,9.944491294542532
405894.90768286027,0.7441944,2.8260245,9.52856,9.966629091783823
405896.06372816593,0.60540575,2.7662017,9.5405245,9.951884027776659
405897.2197734716,0.5647263,2.7350938,9.5500965,9.950075228259452
405898.3758187773,0.5001178,2.7374868,9.502238,9.901337222956053
405899.53186408296,0.50968945,2.7350938,9.442415,9.84376566474765
405900.6879093886,0.46661708,2.7422726,9.377807,9.781669317724225
405901.84395469434,0.39004403,2.7518444,9.250982,9.659474618812041
405903.0,0.26082698,2.7518444,8.896832,9.31634574023159
405903.90768286027,0.42115182,2.6920216,8.942298,9.348210666815326
405905.06372816593,0.84708947,2.5891266,9.5405245,9.921831728875102
405906.2197734716,0.8901618,2.706379,9.753493,10.161077749081013
405907.3758187773,0.8566611,2.88824,9.763065,10.2173008535561
405908.53186408296,0.885376,2.9097762,9.66017,10.127663729822514
405909.6879093886,0.89734054,2.943277,9.43045,9.919752353055822
405910.84395469434,0.885376,2.8978117,9.272519,9.755040333868124
405912.0,0.8518753,2.81406,9.219875,9.677330222017593
405912.90768286027,0.7106937,2.7039862,9.253376,9.66651924440158
405914.06372816593,0.54558307,2.5436614,9.32277,9.678941815974543
405915.2197734716,0.34697166,2.4981961,9.358664,9.692572669410033
405916.3758187773,0.21057591,2.4599094,9.4137,9.732072963150282
405917.53186408296,-0.014357449,2.445552,9.428058,9.740082564968832
405918.6879093886,-0.1483603,2.4551237,9.514202,9.826987476216797
405919.84395469434,-0.25364825,2.4623024,9.518989,9.835569232428533
405921.0,-0.26082698,2.445552,9.593168,9.903414945079497
405921.90768286027,-0.2919348,2.3761578,9.657777,9.950075798690223
405923.06372816593,-0.2368979,2.3235137,9.614705,9.894310929323836
405924.2197734716,-0.17468229,2.2708697,9.626669,9.89242736300746
405925.3758187773,-0.13878867,2.2062612,9.576418,9.828256838741538
405926.53186408296,-0.028714897,2.1895108,9.56924,9.816574568872095
405927.6879093886,-0.040679436,2.2014754,9.6912775,9.93825982430147
405928.84395469434,-0.023929082,2.1823323,9.67692,9.91997618721883
405930.0,0.07418015,2.1536174,9.724778,9.960666531388389
405931.90768286027,0.03828653,2.1464386,9.727171,9.96125093475666
405933.06372816593,0.028714897,2.1488314,9.755886,9.98977540167604
405934.2197734716,-0.016750356,2.084223,9.779816,9.999453339158652
405935.3758187773,-0.057429794,2.0650797,9.794173,10.009679170808623
405936.53186408296,-0.12682413,2.0674727,9.798959,10.01549425684407
405937.6879093886,-0.1483603,2.112938,9.775029,10.001885308345678
405938.84395469434,-0.16750357,2.1225095,9.777423,10.006553080081172
405940.0,-0.19861138,2.184725,9.786994,10.029841542214239
405940.90768286027,-0.15553902,2.1799393,9.827674,10.067745725270532
405942.06372816593,-0.13878867,2.1751535,9.885103,10.122540015435437
405943.2197734716,-0.12203831,2.132081,9.885103,10.113155989120195
405944.3758187773,-0.071787246,2.112938,9.851603,10.075899070065226
405945.53186408296,0.031107806,2.1225095,9.842031,10.06834586603705
405946.6879093886,0.06460852,2.1512244,9.827674,10.060572395758005
405947.84395469434,0.052643977,2.1919038,9.746315,9.98988837455123
405949.0,-0.026321989,2.2708697,9.54531,9.811752393817478
405949.90768286027,0.0071787243,2.3091564,9.315591,9.597525227527381
405951.06372816593,0.043072347,2.3139422,9.145695,9.43397693261129
405952.2197734716,0.30868515,2.2254045,9.566847,9.827119274327536
405953.3758187773,0.52165395,2.1703677,10.1339655,10.376891420456522
405954.53186408296,0.4091873,2.4479449,10.021499,10.324258360139885
405955.6879093886,0.5025107,2.4479449,10.090894,10.395724744157404
405956.84395469434,0.5910483,2.4096584,10.157895,10.45651101126224
405958.0,0.6389065,2.3857293,10.1842165,10.479416564269835
405958.90768286027,0.6652284,2.3976939,10.088501,10.390828517941426
405960.06372816593,0.6652284,2.4120514,9.99757,10.305917071532669
405961.2197734716,0.7441944,2.4479449,9.851603,10.178425281350568
405962.3758187773,0.83033913,2.4144442,9.789387,10.11687213033217
405963.53186408296,0.89734054,2.4168372,9.70085,10.037570065435725
405964.6879093886,0.9140909,2.471874,9.679314,10.031691918910528
405965.84395469434,0.96434194,2.5412683,9.526167,9.906354408243066
405967.0,0.9212696,2.603484,9.377807,9.775997685320366
405968.90768286027,0.8518753,2.68245,9.0978365,9.523227315883116
405970.06372816593,0.81119585,2.6369848,9.066729,9.477199074722936
405971.2197734716,1.067237,2.5580187,9.530953,9.925800701803745
405972.3758187773,1.1820966,2.6321988,9.763065,10.180533438316383
405973.53186408296,1.1844895,2.6752713,9.861175,10.286051928939447
405974.6879093886,1.1294526,2.7039862,9.976034,10.397521767930723
405975.84395469434,1.1390243,2.6944146,10.040643,10.45809534504886
405977.0,1.0457008,2.7446656,9.897068,10.323692867165702
405977.90768286027,0.89494765,2.6752713,9.715207,10.116484314112942
405979.06372816593,0.8710185,2.5963054,9.60274,9.98559414682028
405980.2197734716,0.7968384,2.495803,9.554882,9.907560450708718
405981.3758187773,0.7441944,2.4096584,9.521381,9.849719542039912
405982.53186408296,0.68915755,2.3498356,9.497452,9.808071164508002
405983.6879093886,0.60779864,2.371372,9.463951,9.775438244885537
405984.84395469434,0.50968945,2.4288018,9.399343,9.72144589815597
405986.0,0.43072346,2.5149465,9.284483,9.628712435946232
405986.90768286027,0.49533197,2.4862316,9.368236,9.705181455338103
405988.06372816593,0.22493336,2.6178415,8.884868,9.265234401405458
405989.2197734716,0.442688,2.4407663,9.224661,9.552365328099668
405990.3758187773,0.5886554,2.4862316,9.368236,9.710391778938877
405991.53186408296,0.55754757,2.5843408,9.346699,9.713416436041365
405992.6879093886,0.7059079,2.5101607,9.655384,10.001282562279844
405993.84395469434,0.80880296,2.502982,9.952105,10.29385617985086
405995.0,0.7944455,2.5340896,9.935354,10.284163206533355
405995.90768286027,0.6269419,2.5915194,9.801352,10.157535625064574
405997.06372816593,0.5527618,2.5628045,9.56924,9.921888262339962
405998.2197734716,0.51926106,2.4886243,9.392164,9.73014016126586
405999.3758187773,0.45943835,2.4551237,9.317985,9.646945653416807
406000.53186408296,0.37090075,2.4335876,9.346699,9.665438333041358
406001.6879093886,0.2919348,2.3474429,9.444808,9.736534920241157
406002.84395469434,0.22493336,2.2612982,9.487881,9.756226239480362
406004.0,0.15793194,2.2325833,9.552489,9.811188347199948
406004.90768286027,0.067001425,2.2541194,9.566847,9.829043950548668
406006.06372816593,-0.011964541,2.3139422,9.514202,9.791553061286354
406007.2197734716,-0.004785816,2.3665862,9.56206,9.850570774816312
406008.3758187773,0.05025107,2.424016,9.652991,9.952819398761998
406009.53186408296,0.09332342,2.371372,9.681706,9.968327116098292
406010.6879093886,0.16032484,2.2995846,9.758279,10.026854064397227
406011.84395469434,0.25125536,2.2445478,9.703242,9.962631649969678
406013.0,0.088537596,2.2230117,9.411307,9.670693841317249
406014.90768286027,0.18664683,2.0985804,9.497452,9.728333424935496
406016.06372816593,-0.10050214,2.2517266,8.772401,9.05733916037669
406017.2197734716,0.004785816,2.1823323,9.128944,9.386171515948027
406018.3758187773,0.16989647,2.1009734,9.559668,9.789290388391287
406019.53186408296,0.31825677,2.160796,10.050214,10.284800832833994
406020.6879093886,0.19621846,2.3976939,10.059786,10.34343908417012
406021.84395469434,0.18903974,2.4311945,10.136358,10.425554960015006
406023.0,0.27039862,2.4646955,10.150716,10.449156647025355
406023.90768286027,0.21775463,2.5412683,10.016713,10.336343694742368
406025.06372816593,0.13878867,2.6369848,9.765458,10.116181151013233
406026.2197734716,0.110073775,2.658521,9.595561,9.957642343853527
406027.3758187773,0.13400285,2.6656997,9.473523,9.842334564823389
406028.53186408296,0.13639577,2.6010911,9.47113,9.8227583800821
406029.6879093886,0.17468229,2.5819478,9.487881,9.834472747154546
406030.84395469434,0.19382556,2.5843408,9.487881,9.83545990731572
406032.0,0.15314612,2.680057,9.361056,9.73835348980802
406032.90768286027,0.1196454,2.6848428,9.277305,9.658730969722574
406034.06372816593,0.0598227,2.8499537,9.052371,9.490586682034994
406035.2197734716,0.08614469,2.8930259,8.872903,9.333028844544252
406036.3758187773,0.28236315,2.7805593,9.05955,9.480858883655763
406037.53186408296,0.5695121,2.7231295,9.344306,9.749658092848827
406038.6879093886,0.73701566,2.7183435,9.672134,10.073865175841568
406039.84395469434,0.8542682,2.7350938,9.995177,10.397791857584892
406041.0,0.9140909,2.7566302,10.076536,10.486713021357591
406041.90768286027,0.86623275,2.8978117,9.971248,10.41985885237096
406043.06372816593,0.7633377,2.9767776,9.832459,10.301511506122976
406044.2197734716,0.7322299,2.9911351,9.686492,10.164210597924956
406045.3758187773,0.6173703,2.9863493,9.538132,10.013760046973193
406046.53186408296,0.5814767,2.916955,9.466345,9.922622097192502
406047.6879093886,0.59583414,2.835596,9.485488,9.918170476239535
406048.84395469434,0.6125845,2.8284173,9.473523,9.905697462779113
406050.0,0.5360114,2.8810613,9.270126,9.722296976083566
406051.90768286027,0.5551547,2.8068812,9.384986,9.81145967896936
406053.06372816593,0.53840435,2.9719918,9.102622,9.590638236230692
406054.2197734716,0.45704544,3.0342073,8.875296,9.390749893443765
406055.3758187773,0.57669085,3.0796728,8.772401,9.315147674424415
406056.53186408296,0.6580497,3.072494,8.923154,9.460228649214674
406057.6879093886,0.8446966,3.0796728,9.164838,9.705264162677665
406058.84395469434,1.0265576,2.9504557,9.652991,10.145897919349537
406060.0,1.2682413,2.9193478,10.136358,10.62434850127548
406060.90768286027,1.4046371,3.1107805,10.07175,10.634383327883976
406062.06372816593,1.4237803,3.2208543,9.786994,10.401264553915192
406063.2197734716,1.3376356,3.2399976,9.60274,10.222498175788203
406064.3758187773,1.1677392,3.1825678,9.514202,10.100118431860958
406065.53186408296,0.9786994,3.1299238,9.370628,9.927887218524937
406066.6879093886,0.885376,3.0533507,9.260554,9.791052116370462
406067.84395469434,0.7896597,3.0270288,9.162445,9.681780010713863
406069.0,0.7896597,3.0054924,9.15766,9.670536887053473
406070.90768286027,0.7681235,2.988742,9.215089,9.71804804123427
406072.06372816593,0.69155043,2.9648132,9.341913,9.825461709644816
406073.2197734716,0.7059079,2.895419,9.373021,9.835409488947798
406074.3758187773,0.62454903,2.9002047,9.243804,9.708200718114147
406075.53186408296,0.48336744,2.88824,8.724543,9.202892205089722
406076.6879093886,0.4498667,2.7350938,8.717364,9.147434244150833
406077.84395469434,0.49533197,2.7015932,8.954262,9.366043323807247
406079.0,0.5527618,2.605877,9.4495945,9.817890647236732
406079.90768286027,0.5288327,2.730308,9.770244,10.158342070386746
406081.06372816593,0.44747382,2.8762755,9.86596,10.286416299814316
406082.2197734716,0.40679437,2.9504557,9.880318,10.319464825185955
406083.3758187773,0.38765112,2.9313123,9.80853,10.244516872545455
406084.53186408296,0.39482984,2.9097762,9.839638,10.268454806234718
406085.6879093886,0.40679437,2.9624202,9.715207,10.164972314457168
406086.84395469434,0.46422416,3.0126712,9.52856,10.00425646930531
406088.0,0.5240469,3.0102785,9.440022,9.922218358887587
406088.90768286027,0.66044265,2.9815636,9.361056,9.84658699397512
406090.06372816593,0.7896597,2.8786685,9.332341,9.798106108579216
406091.2197734716,0.8901618,2.7709875,9.361056,9.803067335812372
406092.3758187773,0.9284483,2.7446656,9.33952,9.778641998355203
406093.53186408296,0.84230363,2.763809,8.882475,9.34058230086418
406094.6879093886,0.77290934,2.6513422,8.487645,8.925644063897298
406095.84395469434,0.7944455,2.4096584,8.748472,9.108971379466773
406097.0,0.80641,2.1990826,9.451987,9.737880653298836
406097.90768286027,0.7896597,2.1775463,9.916211,10.183148379895522
406099.06372816593,0.7130866,2.2493336,10.205753,10.474988708356564
406100.2197734716,0.64129937,2.4072654,10.351721,10.647268159008702
406101.3758187773,0.5264398,2.4934103,10.46658,10.772350285966853
406102.53186408296,0.3565433,2.629806,10.251218,10.589167729615717
406103.6879093886,0.09571633,2.7518444,9.743921,10.125502736747496
406104.84395469434,0.12203831,2.6441634,9.873138,10.221807443013747
406106.0,0.08375178,2.6633067,9.6912775,10.050924162529748
406107.90768286027,0.040679436,2.680057,9.705635,10.06894786425013
406109.06372816593,0.016750356,2.7135577,9.574025,9.95116227715539
406110.2197734716,0.040679436,2.6848428,9.526167,9.89736800311649
406111.3758187773,0.021536173,2.60827,9.399343,9.754546890107017
406112.53186408296,0.004785816,2.5867336,9.341913,9.693428295550174
406113.6879093886,0.107680865,2.5580187,9.796566,10.125599252913027
406114.84395469434,0.11485959,2.6226273,9.827674,10.172243751031345
406116.0,0.09332342,2.6728783,10.114822,10.462438136448664
406116.90768286027,-0.031107806,2.7877378,9.73435,10.125710822438243
406118.06372816593,-0.18903974,2.8044882,9.289269,9.70522584186476
406119.2197734716,-0.2392908,2.761416,9.229446,9.636667052406482
406120.3758187773,-0.18425392,2.7973096,9.317985,9.730556765443206
406121.53186408296,-0.20339718,2.8092742,9.349092,9.764164745029735
406122.6879093886,-0.07896597,2.7398798,9.810924,10.186628818045845
406123.84395469434,-0.0598227,2.811667,9.889889,10.281972306257456
406125.0,0.07896597,2.861918,10.028678,10.429342869559234
406125.90768286027,0.11246668,2.9193478,9.739136,10.167891146052414
406127.06372816593,0.18664683,2.885847,9.925783,10.338477552795046
406128.2197734716,0.2368979,2.9097762,9.810924,10.236070920176688
406129.3758187773,0.40200856,2.866704,10.0334635,10.442700441541044
406130.53186408296,0.3278284,2.9935281,9.767851,10.22152606529657
406131.6879093886,0.33979294,2.8786685,9.796566,10.216403328340268
406132.84395469434,0.42115182,2.8044882,9.822887,10.224071201541857
406134.0,0.52165395,2.8403819,9.930569,10.341957882584865
406134.90768286027,0.5431901,2.9049904,9.95689,10.386225646544087
406136.06372816593,0.39482984,3.0940301,9.554882,10.051103566085887
406137.2197734716,0.3254355,3.1945324,9.229446,9.772083656325604
406138.3758187773,0.4091873,3.125138,9.418487,9.931858795547504
406139.53186408296,0.48336744,3.1849606,9.224661,9.77097685344334
406140.6879093886,0.44747382,3.254355,9.090658,9.665977558352512
406141.84395469434,0.40679437,3.3213565,9.081086,9.67796536462866
406143.0,0.5312256,3.3213565,9.270126,9.861482935850145
406143.90768286027,0.60301286,3.3261423,9.279697,9.876215040235996
406145.06372816593,0.54797596,3.3931437,9.270126,9.886806252651237
406146.2197734716,0.57669085,3.3859649,9.643419,10.236838410860393
406147.3758187773,0.57669085,3.4553592,9.636241,10.253254124792742
406148.53186408296,0.5072965,3.5175748,9.432844,10.080140283787884
406149.6879093886,0.50968945,3.512789,9.456773,10.100991311128395
406150.84395469434,0.5049036,3.543897,9.466345,10.12056427532215
406152.0,0.49533197,3.543897,9.554882,10.202956911652478
406153.90768286027,0.40679437,3.5750046,9.320377,9.99077409271243
406155.06372816593,0.4450809,3.5821834,9.250982,9.930297220280186
406156.2197734716,0.42593765,3.5893621,9.15766,9.845185617458105
406157.3758187773,0.48097453,3.5582542,9.061943,9.747375051036835
406158.53186408296,0.5431901,3.462538,8.951869,9.613541672003247
406159.6879093886,0.63172776,3.462538,8.930333,9.5989112327955
406160.84395469434,0.5838696,3.48886,8.633613,9.330183344563663
406162.0,0.6652284,3.3740003,9.00212,9.636626554088657
406162.90768286027,0.7776951,3.206497,9.597955,10.149244940467149
406164.06372816593,0.80641,3.3141778,9.487881,10.08235872443913
406165.2197734716,0.8614469,3.3333209,9.4495945,10.057233973530032
406166.3758187773,0.93084127,3.2112827,9.724778,10.283487210014826
406167.53186408296,0.95955616,3.2232473,9.755886,10.319272398097999
406168.6879093886,0.95955616,3.2711053,9.669742,10.253038001219249
406169.84395469434,0.911698,3.278284,9.557275,10.14494182602764
406171.0,0.8710185,3.3165705,9.313198,9.92441283381624
406171.90768286027,0.86623275,3.2830698,9.088264,9.701827097126634
406173.06372816593,0.8614469,3.2304258,9.26534,9.850089691288362
406174.2197734716,0.9404129,3.1371026,9.514202,10.062098630117733
406175.3758187773,0.92366254,3.1682103,9.52856,10.083856636546622
406176.53186408296,0.97152066,3.2471762,9.605133,10.18560678675268
406177.6879093886,1.0385221,3.172996,9.387379,9.963398830612242
406178.84395469434,1.1414171,3.1179593,9.631455,10.187709684205469
406180.0,1.1844895,3.153853,9.708028,10.275972546187697
406180.90768286027,1.1485959,3.204104,9.621883,10.206183784843471
406182.06372816593,1.1007377,3.2471762,9.217482,9.834518350095838
406183.2197734716,1.196454,3.2208543,9.380199,9.989671559943574
406184.3758187773,1.2467052,3.172996,9.375414,9.975999455849976
406185.53186408296,1.2538838,3.1347096,9.294055,9.888280295544803
406186.6879093886,1.3902797,3.0605295,9.504631,10.081553893659613
406187.84395469434,1.3472073,3.1562457,9.102622,9.728030720697062
406189.0,1.3472073,3.0964231,9.217482,9.816556317961554
406190.90768286027,1.457281,2.9911351,9.530953,10.095029578343098
406192.06372816593,1.4692456,2.938491,9.767851,10.30554827015047
406193.2197734716,1.3831009,2.967206,9.67692,10.215677179336513
406194.3758187773,1.3567789,2.998314,9.6410265,10.187253201907934
406195.53186408296,1.3448143,2.9743848,9.69367,10.228525236262337
406196.6879093886,1.2682413,2.9552414,9.758279,10.274526595865167
406197.84395469434,1.2586696,3.0054924,9.703242,10.235728554381751
406199.0,1.3232782,2.785345,9.904246,10.373201087038478
406199.90768286027,1.2921704,2.7805593,9.935354,10.397714819553798
406201.06372816593,1.225169,2.8164527,9.7917795,10.26218254887909
406202.2197734716,1.1749178,2.782952,9.968855,10.416492868623576
406203.3758187773,1.1031306,2.759023,9.923389,10.358704276139287
406204.53186408296,1.0098072,2.7949166,9.8922825,10.329013623862332
406205.6879093886,0.9667349,2.8595252,9.894675,10.34485640750697
406206.84395469434,0.8901618,2.885847,9.710421,10.169207291368844
406208.0,0.90691215,2.7877378,9.88271,10.30834267151934
406208.90768286027,0.8279462,2.6633067,9.98082,10.363178342610887
406210.06372816593,0.8877689,2.5939124,10.119608,10.484416113086363
406211.2197734716,0.8901618,2.6178415,10.193789,10.562140707537582
406212.3758187773,0.832732,2.6393776,10.203361,10.572054312929287
406213.53186408296,0.75615895,2.6489491,10.220111,10.584865447627424
406214.6879093886,0.7394086,2.6513422,10.368471,10.727606043153141
406215.84395469434,0.69872916,2.7350938,10.148323,10.53363281333471
406217.0,0.5934412,2.8427749,9.899461,10.316630732969386
406217.90768286027,0.53840435,2.8906329,9.763065,10.196228518471244
406219.06372816593,0.5623334,2.627413,9.995177,10.35002807661185
406220.2197734716,0.5910483,2.5723763,9.937747,10.282279579827792
406221.3758187773,0.4737958,2.6345918,9.889889,10.245753307836662
406222.53186408296,0.4115802,2.6752713,9.889889,10.253603231155218
406223.6879093886,0.30629224,2.7255223,9.944926,10.316193090939969
406224.84395469434,0.19861138,2.7494514,9.863567,10.241527398035727
406226.0,0.208183,2.7566302,10.0932865,10.465026640774656
406227.90768286027,0.14118157,2.8834543,9.887496,10.300330969726758
406229.06372816593,0.0071787243,2.864311,9.755886,10.167676267653272
406230.2197734716,-0.0071787243,2.864311,9.715207,10.128651247409627
406231.3758187773,-0.0071787243,2.9049904,9.688885,10.115014251171361
406232.53186408296,-0.08614469,2.995921,9.595561,10.052748601779376
406233.6879093886,-0.045465253,3.0413861,9.492666,9.968089299663179
406234.84395469434,-0.019143265,3.1083877,9.45438,9.952273194728235
406236.0,-0.052643977,3.1131735,9.418487,9.919804332676408
406236.90768286027,-0.09810923,3.2352118,9.370628,9.91387360854749
406238.06372816593,-0.023929082,3.1993182,9.504631,10.02866990143646
406239.2197734716,0.031107806,3.0964231,9.466345,9.959944345669445
406240.3758187773,0.057429794,3.1155663,9.435237,9.93648573677352
406241.53186408296,0.069394335,3.228033,9.382592,9.922602746320297
406242.6879093886,0.071787246,3.2711053,9.461558,10.011311756195607
406243.84395469434,0.088537596,3.3165705,9.363449,9.933864100287295
406245.0,0.16511066,3.2423904,9.492666,10.032500427291982
406245.90768286027,0.22971918,3.22564,9.432844,9.971763647399383
406247.06372816593,0.22732627,3.2232473,9.344306,9.887216747478806
406248.2197734716,0.2943277,3.204104,9.4495945,9.982371835001617
406249.3758187773,0.4091873,3.2399976,9.406522,9.957292545213837
406250.53186408296,0.46422416,3.228033,9.523774,10.066676329498863
406251.6879093886,0.52165395,3.206497,9.507024,10.04675326616194
406252.84395469434,0.64129937,3.2376046,9.607526,10.158636929656437
406254.0,0.69872916,3.2687125,9.648206,10.210807160314339
406254.90768286027,0.78248096,3.206497,9.739136,10.283222719083135
406256.06372816593,0.7705164,3.1825678,9.643419,10.184201654220463
406257.2197734716,0.7681235,3.2208543,9.688885,10.239062880767252
406258.3758187773,0.75376606,3.1801748,9.614705,10.155009959068872
406259.53186408296,0.7513731,3.1969252,9.629062,10.173678158347778
406260.6879093886,0.72983694,3.1586387,9.60274,10.135199845278152
406261.84395469434,0.66283554,3.125138,9.547704,10.0679933523889
406263.0,0.6580497,3.1849606,9.444808,9.989064099708564
406264.90768286027,0.72505116,3.15146,9.593168,10.123550345231724
406266.06372816593,0.79205257,3.228033,9.648206,10.204676542701812
406267.2197734716,0.84230363,3.2830698,9.739136,10.312070245264975
406268.3758187773,0.8542682,3.2878556,9.786994,10.35977896289388
406269.53186408296,0.832732,3.2950344,9.837245,10.407789557395574
406270.6879093886,0.81119585,3.3428926,9.667349,10.261121104927716
406271.84395469434,0.77290934,3.309392,9.715207,10.292458953543232
406273.0,0.7633377,3.2591407,9.715207,10.275696063989377
406273.90768286027,0.66283554,3.2352118,9.674527,10.22264246746776
406275.06372816593,0.6269419,3.3189635,9.566847,10.145596896275588
406276.2197734716,0.5910483,3.5773976,9.535739,10.201834636845454
406277.3758187773,0.75376606,3.381179,9.535739,10.145484363960644
406278.53186408296,0.8231604,3.3141778,9.509417,10.10397838546926
406279.6879093886,0.8566611,3.3165705,9.497452,10.096291527785212
406280.84395469434,0.78248096,3.4003224,9.523774,10.14281716683192
406282.0,0.6939433,3.493646,9.581204,10.221868213127523
406282.90768286027,0.60301286,3.48886,9.60274,10.234665803851408
406284.06372816593,0.6293348,3.491253,9.595561,10.230332384884719
406285.2197734716,0.6006199,3.4721096,9.511809,10.14351023024915
406286.3758187773,0.6101916,3.512789,9.45438,10.10432192339652
406287.53186408296,0.6293348,3.5773976,9.404129,10.081243877995304
406288.6879093886,0.63172776,3.6850784,9.327556,10.048989188472499
406289.84395469434,0.5910483,3.7114005,9.32277,10.05175965874797
406291.0,0.60540575,3.699436,9.303627,10.030444566187386
406291.90768286027,0.6795859,3.7305436,9.313198,10.05556808609955
406293.06372816593,0.67240715,3.7114005,9.308413,10.04356399020489
406294.2197734716,0.72744405,3.7425082,9.370628,10.116531598691898
406295.3758187773,0.75855184,3.771223,9.475916,10.226950075596946
406296.53186408296,0.78487384,3.7927594,9.444808,10.208107021767978
406297.6879093886,0.7705164,3.7927594,9.303627,10.076516994680569
406298.84395469434,0.7609448,3.8286529,9.107409,9.908709235344755
406300.0,0.8231604,3.8908687,9.0069065,9.845852780968752
406300.90768286027,0.87580436,3.878904,8.923154,9.769114945885683
406302.06372816593,0.8159817,4.2115183,8.918368,9.896464030621935
406303.2197734716,0.95955616,4.0176926,8.892047,9.804646944306445
406304.3758187773,1.0887731,3.8597608,8.901618,9.763297768398967
406305.53186408296,1.0361292,3.8621538,8.777187,9.645144235671962
406306.6879093886,0.98827106,3.8932614,8.781973,9.65697746655197
406307.84395469434,0.87580436,3.9961565,8.863332,9.761913449304458
406309.0,0.8638398,4.051193,8.908797,9.824716174552934
406310.90768286027,0.7872668,4.132552,8.98537,9.92142374278945
406312.06372816593,0.7418015,4.1277666,8.999727,9.92893814282307
406313.2197734716,0.60540575,4.063158,8.959048,9.85597839493376
406314.3758187773,0.54558307,4.118195,8.87051,9.795056845388679
406315.53186408296,0.43311638,4.063158,8.77958,9.683897340843112
406316.6879093886,0.43072346,4.094266,8.772401,9.690384723144453
406317.84395469434,0.2632199,4.0751224,8.686256,9.598278522124359
406319.0,0.16032484,4.323985,8.731722,9.745025367839224
406319.90768286027,0.2943277,4.213911,8.770008,9.734306088826893
406321.06372816593,0.51208234,3.988978,8.772401,9.65034678714837
406322.2197734716,0.5431901,3.926762,8.781973,9.635225221140969
406323.3758187773,0.5360114,3.907619,8.77958,9.624854255857121
406324.53186408296,0.4737958,3.9100118,8.820259,9.659691690903902
406325.6879093886,0.3278284,3.929155,8.851367,9.689810536979582
406326.84395469434,0.25364825,3.9650488,8.884868,9.732770869517761
406328.0,0.16750357,3.933941,8.820259,9.659240035557909
406328.90768286027,0.110073775,3.9435124,8.813081,9.655765272491742
406330.06372816593,0.014357449,3.9387267,8.803509,9.644456691110998
406331.2197734716,-0.023929082,3.9937637,8.781973,9.647474843975084
406332.3758187773,-0.1196454,4.000942,8.638398,9.520702280583569
406333.53186408296,-0.234505,4.264162,8.669506,9.664284993795713
406334.6879093886,-0.22971918,3.9913707,8.595325,9.479631998242514
406335.84395469434,-0.13878867,3.874118,8.487645,9.331032644829262
406337.0,-0.12921704,3.9100118,8.377571,9.246003741055192
406337.90768286027,-0.08614469,4.000942,8.470895,9.368618889463068
406339.06372816593,-0.12682413,4.027264,8.624041,9.518877184591009
406340.2197734716,-0.13400285,4.094266,8.820259,9.725119005423283
406341.3758187773,-0.067001425,4.0918727,9.093051,9.971533877621754
406342.53186408296,0.0598227,4.084694,9.239018,10.101869006941007
406343.6879093886,0.13400285,4.0559793,9.2988405,10.145805019330743
406344.84395469434,0.12203831,3.9961565,9.224661,10.053781909635841
406346.0,0.15793194,3.9722273,9.090658,9.921874575578016
406347.90768286027,0.14357449,3.9530842,9.00212,9.832886291464394
406349.06372816593,0.12921704,3.984192,8.901618,9.753424319397489
406350.2197734716,0.08135887,4.0535865,8.798723,9.687915627700262
406351.3758187773,-0.03828653,4.3838077,8.820259,9.849680433193745
406352.53186408296,0.09093051,4.2019467,8.76283,9.718632313046406
406353.6879093886,0.16989647,4.000942,8.657541,9.538837343437796
406354.84395469434,0.25364825,4.08948,8.726935,9.640932454869345
406356.0,0.2919348,4.1469097,8.848974,9.776831124657987
406356.90768286027,0.30389932,4.22109,8.877689,9.834801348553892
406358.06372816593,0.28714898,4.2904844,8.949476,9.92893909730211
406359.2197734716,0.30629224,4.36945,9.038013,10.043484814891354
406360.3758187773,0.2943277,4.371843,9.107409,10.106658137332898
406361.53186408296,0.2368979,4.338342,9.105016,10.088540443703659
406362.6879093886,0.17946811,4.319199,9.145695,10.115899655351123
406363.84395469434,0.16511066,4.343128,9.045193,10.035214933506836
406365.0,0.15553902,4.3407354,8.913583,9.915550317427908
406366.90768286027,0.16271774,4.3526998,8.85376,9.867195080134513
406368.06372816593,0.18186101,4.4460235,8.793938,9.855635136172324
406369.2197734716,0.1172525,4.524989,8.846581,9.937367306708465
406370.3758187773,0.19621846,4.1995535,8.700614,9.663096566856973
406371.53186408296,0.19621846,4.082301,8.643184,9.560769466758508
406372.6879093886,0.14357449,4.063158,8.583362,9.497577048394328
406373.84395469434,0.016750356,4.08948,8.6048975,9.527244524537636
406375.0,-0.019143265,4.1732316,8.741293,9.686404480697801
406375.90768286027,-0.088537596,4.2617693,8.925548,9.891204354002193
406377.06372816593,-0.11246668,4.3024487,9.030835,10.003983924790509
406378.2197734716,-0.21296883,4.350307,9.114587,10.101793053580616
406379.3758187773,-0.33022133,4.314413,9.071514,10.050650322917019
406380.53186408296,-0.45943835,4.5154176,9.090658,10.160715652590838
406381.6879093886,-0.46661708,4.606348,9.02605,10.14424723668305
406382.84395469434,-0.4115802,4.357486,8.949476,9.962439619681719
406384.0,-0.40200856,4.402951,8.935119,9.969149408794879
406384.90768286027,-0.41875893,4.3838077,8.939904,9.96569177334168
406386.06372816593,-0.48815325,4.402951,8.89444,9.936565504110892
406387.2197734716,-0.46901,4.395772,8.920761,9.95604131546294
406388.3758187773,-0.43072346,4.431666,8.901618,9.953089432556826
406389.53186408296,-0.51926106,4.36945,8.77958,9.820526988269638
406390.6879093886,-0.47140288,4.3335567,8.724543,9.75292699174131
406391.84395469434,-0.5025107,4.3790216,8.736507,9.785443359292927
406393.0,-0.45704544,4.3359494,8.7053995,9.73618653211746
406393.90768286027,-0.36850783,4.374236,8.636005,9.687637532674946
406395.06372816593,-0.2632199,4.4675593,8.671899,9.758596368380726
406396.2197734716,-0.22014755,4.5991693,8.657541,9.805806410515888
406397.3758187773,-0.234505,4.6996713,8.652756,9.849471524838513
406398.53186408296,-0.25125536,4.6398487,8.540289,9.722543978730124
406399.6879093886,-0.22732627,4.6781354,8.298605,9.529085632934057
406400.84395469434,-0.26082698,4.718815,8.114351,9.390310850494883
406402.0,-0.27518442,4.8576035,7.8942037,9.273105751867423
406403.90768286027,-0.27518442,4.97007,7.7195215,9.185223702168226
406405.06372816593,-0.17946811,5.075358,7.5352674,9.0868983938511
406406.2197734716,-0.14357449,5.1638956,7.4012647,9.02580470436538
406407.3758187773,-0.055036888,5.2763624,7.2768335,8.988622531950973
406408.53186408296,-0.11246668,5.3242207,7.004042,8.798669169492777
406409.6879093886,-0.11246668,5.417544,6.917897,8.7874757836739
406410.84395469434,-0.09332342,5.4582233,6.8652534,8.771123935938595
406412.0,0.057429794,5.6448703,6.824574,8.856786616292444
406412.90768286027,0.10289505,5.7860518,6.951398,9.044938749267557
406414.06372816593,0.19143265,5.884161,7.0734363,9.202907052859151
406415.2197734716,0.20100428,6.140202,7.1643667,9.437723959379785
406416.3758187773,0.22254045,6.044486,7.2337613,9.429349807990999
406417.53186408296,0.2656128,5.7812657,7.181117,9.222907601250775
406418.6879093886,0.2680057,5.7429795,7.1476164,9.172898167656811
406419.84395469434,0.21775463,5.814767,7.1141157,9.190733079366517
406421.0,0.18425392,5.8674107,7.1284733,9.234478297030252
406421.90768286027,0.20100428,5.8674107,7.1954746,9.286644483466457
406423.06372816593,0.2680057,5.821945,7.293584,9.336125438495003
406424.2197734716,0.34457877,5.754944,7.3462276,9.338371106508482
406425.3758187773,0.45225963,5.7310147,7.386907,9.36031320475938
406426.53186408296,0.45225963,5.7381935,7.3773355,9.357162096273113
406427.6879093886,0.48815325,5.709479,7.362978,9.330053004962542
406428.84395469434,0.49533197,5.7166576,7.3773355,9.34615466144778
406430.0,0.44747382,5.7693014,7.444337,9.428850663426394
406430.90768286027,0.5001178,5.826731,7.5352674,9.538404832556678
406432.06372816593,0.63172776,5.652049,7.597483,9.490336442742407
406433.2197734716,0.67240715,5.5826545,7.57834,9.436598952871812
406434.3758187773,0.64129937,5.673585,7.599876,9.50573231526974
406435.53186408296,0.571905,5.747765,7.6118407,9.555312483975943
406436.6879093886,0.5527618,5.704693,7.683628,9.585781505655772
406437.84395469434,0.571905,5.62812,7.7434506,9.58977774810581
406439.0,0.55036885,5.62812,7.741058,9.586585396522285
406439.90768286027,0.43550926,5.5946193,7.729093,9.55135131958443
406441.06372816593,0.42354473,5.577869,7.7937016,9.59342469347179
406442.2197734716,0.3517575,5.5300107,7.805666,9.572521788143224
406443.3758187773,0.2584341,5.5515466,7.9300976,9.683641142748947
406444.53186408296,0.21057591,5.472581,8.049743,9.736110485275027
406445.6879093886,0.12203831,5.4055796,8.097601,9.73685401535038
406446.84395469434,0.12921704,5.3457565,8.097601,9.703862713163227
406448.0,0.03828653,5.2189326,8.0641,9.605645847714884
406449.90768286027,-0.014357449,5.199789,7.9875274,9.530928902610361
406451.06372816593,-0.11246668,5.1447525,7.918133,9.44340813721696
406452.2197734716,-0.21057591,5.1686816,7.9300976,9.468160309245754
406453.3758187773,-0.24886245,5.206968,7.965991,9.52005571854099
406454.53186408296,-0.30389932,5.2643976,8.013849,9.593123197498468
406455.6879093886,-0.3565433,5.2452545,8.085636,9.64454910397791
406456.84395469434,-0.43072346,5.283541,8.128709,9.704495772803263
406458.0,-0.46661708,5.340971,8.102386,9.715573149083111
406458.90768286027,-0.5264398,5.384043,8.147852,9.78021217064216
406460.06372816593,-0.54079723,5.386436,8.181353,9.810234010291532
406461.2197734716,-0.5814767,5.3696856,8.231604,9.845351340013533
406462.3758187773,-0.5695121,5.3505425,8.171782,9.784205135414766
406463.53186408296,-0.5240469,5.3505425,8.157424,9.769672282808768
406464.6879093886,-0.5001178,5.278755,8.159817,9.731289001843017
406465.84395469434,-0.44747382,5.281148,8.044957,9.633903162754876
406467.0,-0.4139731,5.223718,7.958812,9.528971189083931
406467.90768286027,-0.37807947,5.178253,7.98992,9.528697173488329
406469.06372816593,-0.35415038,5.123216,7.934883,9.451726450654354
406470.2197734716,-0.27279153,5.104073,7.9827414,9.478931198581552
406471.3758187773,-0.3254355,5.1327877,7.934883,9.455886318141761
406472.53186408296,-0.3278284,5.1016803,7.9827414,9.479386773548624
406473.6879093886,-0.3254355,5.1160374,8.001884,9.503151818860678
406474.84395469434,-0.34218585,5.104073,7.9253116,9.432879533968606
406476.0,-0.3326142,5.1160374,7.98992,9.493328841383322
406476.90768286027,-0.36611494,5.1830387,8.052135,9.583047968846545
406478.06372816593,-0.36850783,5.21654,8.099994,9.64147241827758
406479.2197734716,-0.37329367,5.2572193,8.123923,9.683792017711014
406480.3758187773,-0.36372203,5.278755,8.131102,9.701152910841904
406481.53186408296,-0.3230426,5.266791,8.073672,9.645082867590084
406482.6879093886,-0.34697166,5.266791,8.121531,9.686007565270902
406483.84395469434,-0.36372203,5.281148,7.98992,9.58444779418258
406485.0,-0.34936458,5.2978983,8.009064,9.60910444125765
406486.90768286027,-0.33500713,5.2883267,7.968384,9.569418615283778
406488.06372816593,-0.31586388,5.2883267,7.994706,9.590698269837162
406489.2197734716,-0.33500713,5.254826,7.9516335,9.536975484174691
406490.3758187773,-0.3326142,5.2643976,7.9755626,9.562118650353915
406491.53186408296,-0.34457877,5.262005,7.97317,9.55922962364958
406492.6879093886,-0.34457877,5.2476473,7.9444547,9.527376196743996
406493.84395469434,-0.39243692,5.2428617,7.903775,9.492695338634386
406495.0,-0.39482984,5.2380757,7.891811,9.480190319883135
406495.90768286027,-0.42593765,5.2955055,7.865489,9.491560387593747
406497.06372816593,-0.5168682,5.305077,7.8319883,9.473702309205052
406498.2197734716,-0.53840435,5.3768644,7.836774,9.519221435976908
406499.3758187773,-0.54797596,5.42233,7.7984877,9.514113237117225
406500.53186408296,-0.6221561,5.4295087,7.786523,9.51296921921184
406501.6879093886,-0.6556568,5.4558306,7.7769513,9.52244427118659
406502.84395469434,-0.6819788,5.5084743,7.6716633,9.469044407223826
406504.0,-0.75376606,5.520439,7.6166263,9.43697018220258
406504.90768286027,-0.7944455,5.577869,7.599876,9.460543401359525
406506.06372816593,-0.86623275,5.6185484,7.5065527,9.416303878815318
406507.2197734716,-0.8997334,5.6305127,7.4874096,9.411349317399127
406508.3758187773,-0.8925547,5.623334,7.4706593,9.393044743038573
406509.53186408296,-0.93562704,5.5946193,7.44673,9.361033637521642
406510.6879093886,-0.9188767,5.6113696,7.4012647,9.333301791813717
406511.84395469434,-0.8877689,5.57069,7.3031554,9.228044185657996
406513.0,-0.8566611,5.503689,7.24094,9.135407650049023
406513.90768286027,-0.8638398,5.5084743,7.209832,9.114339569165091
406515.06372816593,-0.8805902,5.4893312,7.154795,9.060865721091693
406516.2197734716,-0.83991075,5.4893312,7.1691527,9.068349217314928
406517.3758187773,-0.8710185,5.484545,7.1189017,9.02871355723672
406518.53186408296,-0.87580436,5.494117,7.142831,9.05386047944439
406519.6879093886,-0.87819725,5.520439,7.138045,9.066320289105915
406520.84395469434,-0.8734115,5.55394,7.0638647,9.028138328129357
406522.0,-0.859054,5.5874405,7.004042,9.000781602378776
406523.90768286027,-0.8446966,5.5874405,6.968148,8.97151549276909
406525.06372816593,-0.8446966,5.5946193,7.0423284,9.033696184366098
406526.2197734716,-0.7968384,5.5587254,7.1021514,9.054000994965799
406527.3758187773,-0.8183746,5.599405,7.104544,9.082819979933884
406528.53186408296,-0.7872668,5.5515466,7.10933,9.05439295122836
406529.6879093886,-0.74658734,5.5635114,7.1284733,9.073322618698793
406530.84395469434,-0.6939433,5.515653,7.1978674,9.094684185171392
406532.0,-0.64369226,5.4869385,7.274441,9.134458149821869
406532.90768286027,-0.57669085,5.4630094,7.312727,9.14620250254121
406534.06372816593,-0.5144752,5.4510446,7.293584,9.120029579319368
406535.2197734716,-0.4402951,5.34815,7.2648687,9.031881610485366
406536.3758187773,-0.40440148,5.2883267,7.3390493,9.054920456348006
406537.53186408296,-0.34697166,5.393615,7.3318706,9.10866612606986
406538.6879093886,-0.27039862,5.434294,7.29837,9.103343965215963
406539.84395469434,-0.17468229,5.4319015,7.37255,9.159179074056905
406541.0,-0.16032484,5.386436,7.4371586,9.184265070106099
406541.90768286027,-0.110073775,5.3457565,7.4658732,9.183054580678112
406543.06372816593,-0.067001425,5.3744717,7.5352674,9.25579224240452
406544.2197734716,-0.011964541,5.4319015,7.623805,9.360988181488565
406545.3758187773,0.11246668,5.446259,7.6573057,9.397271754740506
406546.53186408296,0.11485959,5.498903,7.63577,9.41042562383466
406547.6879093886,0.17946811,5.599405,7.647734,9.480157197604266
406548.84395469434,0.18664683,5.678371,7.6573057,9.534834284666019
406550.0,0.23211208,5.709479,7.731486,9.613943115981025
406550.90768286027,0.27518442,5.733408,7.6884136,9.594758852839382
406552.06372816593,0.46422416,5.7956233,7.597483,9.566948387104405
406553.2197734716,0.64369226,5.7693014,7.650127,9.603313047368333
406554.3758187773,0.77290934,5.814767,7.6716633,9.657293715152042
406555.53186408296,0.8159817,5.8195524,7.760201,9.73415306184784
406556.6879093886,0.89734054,5.790838,7.834381,9.783483553424746
406557.84395469434,0.9212696,5.7645154,7.815238,9.75481011959563
406559.0,0.99066395,5.6879425,7.791309,9.697350198823225
406560.90768286027,1.1509888,5.647263,7.7697725,9.673971227507899
406562.06372816593,1.2203832,5.601798,7.7817373,9.665656283660075
406563.2197734716,1.2419193,5.55394,7.753022,9.617586142260254
406564.3758187773,1.2706342,5.549154,7.839167,9.688145366364743
406565.53186408296,1.2538838,5.616155,7.836774,9.722574159912767
406566.6879093886,1.3208853,5.6400843,7.822417,9.733729840546818
406567.84395469434,1.3831009,5.5563326,7.836774,9.70571103981978
406569.0,1.4477094,5.5443683,7.7889156,9.669699508093135
406569.90768286027,1.6822144,5.484545,7.7386646,9.633120415311204
406571.06372816593,1.8425392,5.393615,7.753022,9.622649510620535
406572.2197734716,1.8784329,5.3649,7.7817373,9.636705742940046
406573.3758187773,1.8425392,5.384043,7.7960944,9.652044219909946
406574.53186408296,1.8640754,5.333792,7.8463454,9.668983934842911
406575.6879093886,1.8329676,5.2739697,7.829595,9.616500636052224
406576.84395469434,1.8568966,5.211754,7.903775,9.647803065477268
406578.0,1.8903974,5.235683,7.8702745,9.639875492544808
406578.90768286027,1.8377534,5.29072,7.7889156,9.593553142685714
406580.06372816593,1.8042527,5.2691836,7.8128448,9.594798980950737
406581.2197734716,1.7133222,5.2380757,7.9300976,9.657088481808017
406582.3758187773,1.7037506,5.1830387,8.016242,9.696741312176067
406583.53186408296,1.7492158,5.173467,7.965991,9.658236346618342
406584.6879093886,1.742037,5.0322857,7.997099,9.607923016531434
406585.84395469434,1.7898953,4.9963923,7.9492407,9.558142544814753
406587.0,1.8568966,5.0322857,7.896597,9.54610960181817
406587.90768286027,1.8784329,5.1088586,7.910954,9.602715217307674
406589.06372816593,1.9502201,5.104073,7.860703,9.573169343638606
406590.2197734716,2.0531151,5.1519313,7.805666,9.575285867133351
406591.3758187773,2.0459363,5.2691836,7.7625937,9.602500304891759
406592.53186408296,2.0244002,5.362507,7.7673798,9.653334473240688
406593.6879093886,2.0722585,5.434294,7.733879,9.676708684046412
406594.84395469434,2.1296883,5.4534373,7.65252,9.635175815240123
406596.0,2.2038684,5.4295087,7.6692705,9.651648079476608
406596.90768286027,2.2780485,5.3577213,7.683628,9.640167101207838
406598.06372816593,2.4048727,5.259612,7.6908064,9.622652138367584
406599.2197734716,2.4288018,5.1973963,7.7458434,9.638988352532671
406600.3758187773,2.421623,5.15911,7.822417,9.678371850064348
406601.53186408296,2.471874,5.0921082,7.8200235,9.653625978508567
406602.6879093886,2.579555,4.955713,7.803273,9.597096688526328
406603.84395469434,2.6680925,4.7762446,7.7123427,9.455763321373304
406605.0,2.7374868,4.735565,7.647734,9.402512705875766
406606.90768286027,2.7901309,4.661385,7.65252,9.384796370074303
406608.06372816593,2.88824,4.5680614,7.5903044,9.317823572939623
406609.2197734716,2.9313123,4.5728474,7.597483,9.339447150613736
406610.3758187773,2.835596,4.4962745,7.6620917,9.32548863458506
406611.53186408296,2.8571322,4.42688,7.736272,9.360041420883821
406612.6879093886,2.8284173,4.376629,7.8200235,9.397211999690787
406613.84395469434,2.8044882,4.44363,7.839167,9.43734819187722
406615.0,2.8714898,4.560883,7.7458434,9.436376284809576
406615.90768286027,3.0820656,4.453202,7.803273,9.49848440163147
406617.06372816593,3.2687125,4.3120203,7.997099,9.655650826902832
406618.2197734716,3.383572,4.268948,8.099994,9.761269349112544
406619.3758187773,3.3428926,4.1612673,8.214853,9.7966773085977
406620.53186408296,3.390751,4.1301594,8.231604,9.81400598258557
406621.6879093886,3.462538,4.187589,8.248354,9.877267574773956
406622.84395469434,3.5582542,4.331164,8.097601,9.848415938713933
406624.0,3.697043,4.331164,8.219639,9.999478677864463
406624.90768286027,3.7401154,4.3287706,8.315355,10.093158419878613
406626.06372816593,3.902833,4.350307,8.32732,10.173570405837765
406627.2197734716,3.984192,4.2833056,8.391929,10.229612167472252
406628.3758187773,4.113409,4.2569833,8.470895,10.334316741748577
406629.53186408296,4.1612673,4.264162,8.408679,10.305586137107111
406630.6879093886,4.2330546,4.2306614,8.45893,10.361985517888506
406631.84395469434,4.2545905,4.175625,8.624041,10.483867017136198
406633.0,4.225876,4.0679436,8.805902,10.580647576295174
406633.90768286027,4.2569833,3.9626558,8.937511,10.663191392865155
406635.06372816593,4.3048415,4.000942,8.949476,10.706648303837307
406636.2197734716,4.4340587,4.0966587,8.87051,10.729838615721643
406637.3758187773,4.551311,4.027264,8.88726,10.766460767216726
406638.53186408296,4.5489182,3.8980472,9.0069065,10.81719896569631
406639.6879093886,4.55849,3.7975452,9.128944,10.887552488106731
406640.84395469434,4.5202036,3.7855806,9.1983385,10.925762775437308
406642.0,4.544132,3.649185,9.30602,10.980332191607365
406643.90768286027,4.637456,3.4266443,9.183981,10.844048889553177
406645.06372816593,4.735565,3.409894,9.164838,10.864953222481217
406646.2197734716,4.7236004,3.6132913,9.188767,10.94539692006758
406647.3758187773,4.8599963,3.6755068,9.243804,11.071441941467063
406648.53186408296,4.9461412,3.6228628,9.308413,11.146120411000872
406649.6879093886,5.049036,3.515182,9.444808,11.271808514133124
406650.84395469434,5.0131426,3.3763933,9.52856,11.28384181552629
406652.0,4.979642,3.3141778,9.595561,11.307316208672058
406652.90768286027,4.948534,3.204104,9.5500965,11.22312854560992
406654.06372816593,4.8839254,3.1203523,9.574025,11.191571850705577
406655.2197734716,4.83846,3.048565,9.502238,11.090399935956729
406656.3758187773,4.766673,2.969599,9.461558,11.002761903135685
406657.53186408296,4.608741,2.9552414,9.535739,10.99564748495858
406658.6879093886,4.529775,2.6752713,9.66017,10.999764656942833
406659.84395469434,4.268948,2.9241338,9.736743,11.026270437235587
406661.0,4.139731,2.943277,9.621883,10.880298006800135
406661.90768286027,4.1732316,2.9217408,9.566847,10.838680399893345
406663.06372816593,4.139731,3.1394954,9.645813,10.956071948921801
406664.2197734716,4.1277666,3.2471762,9.739136,11.064961834747466
406665.3758187773,4.1732316,3.2734983,9.743921,11.093946527795348
406666.53186408296,4.139731,3.2519622,9.765458,11.093998415916323
406667.6879093886,4.2737336,3.1706033,9.70085,11.064538620848131
406668.84395469434,4.462774,3.0892444,9.607526,11.034687969248761
406670.0,4.4460235,3.0126712,9.652991,11.046426932177784
406670.90768286027,4.3862004,3.017457,9.698457,11.063628196783284
406672.06372816593,4.4388447,2.914562,9.688885,11.048642743151175
406673.2197734716,4.455595,2.7685947,9.743921,11.06622970442662
406674.3758187773,4.4125223,2.5364826,9.731957,10.982489885173992
406675.53186408296,4.314413,2.7566302,9.650599,10.924615812600553
406676.6879093886,4.307235,2.9121692,9.58599,10.905237598271468
406677.84395469434,4.3646646,2.9791706,9.468738,10.843558172806633
406679.0,4.479524,2.9648132,9.392164,10.819842752109025
406680.90768286027,4.450809,3.1921394,9.382592,10.864275739412056
406682.06372816593,4.44363,3.1825678,9.418487,10.889558427579415
406683.2197734716,4.3862004,3.0940301,9.473523,10.888499172989599
406684.3758187773,4.345521,3.0820656,9.475916,10.870863128712474
406685.53186408296,4.3048415,3.017457,9.432844,10.798854245488604
406686.6879093886,4.216304,3.0126712,9.440022,10.768817137467302
406687.84395469434,4.1516957,2.9528487,9.43045,10.718641697201665
406689.0,4.0607653,2.9097762,9.327556,10.581111155682398
406689.90768286027,4.1062303,2.4311945,9.2988405,10.451806954680546
406691.06372816593,4.039229,2.4551237,9.334735,10.463282506793348
406692.2197734716,3.823867,2.5651975,9.332341,10.406478058785126
406693.3758187773,3.6061125,2.68245,9.43045,10.446672798918145
406694.53186408296,3.596541,2.6920216,9.492666,10.502037671190461
406695.6879093886,3.5773976,2.6968074,9.358664,10.37569928275085
406696.84395469434,3.6085055,2.708772,9.267733,10.307746244975341
406698.0,3.7161863,2.6393776,9.155267,10.227182826809075
406699.90768286027,3.7592585,2.5197322,9.325163,10.365314264705537
406701.06372816593,3.7449012,2.6609137,9.332341,10.40179480940141
406702.2197734716,3.75208,2.8188457,9.145695,10.279481136703033
406703.3758187773,3.7281508,2.9025974,9.052371,10.211248737332198
406704.53186408296,3.876511,2.6226273,9.093051,10.226880657190994
406705.6879093886,3.8956544,2.656128,9.234232,10.368325794767802
406706.84395469434,3.8884757,2.6226273,9.313198,10.427563196231407
406708.0,3.8597608,2.60827,9.28209,10.385471611545459
406708.90768286027,3.804724,2.6417706,9.193553,10.294478781512415
406710.06372816593,3.7257578,2.6872358,9.176803,10.262369157746738
406711.2197734716,3.6611493,2.6321988,9.093051,10.149682813182535
406712.3758187773,3.6850784,2.5364826,9.073908,10.116785714183795
406713.53186408296,3.7855806,2.3498356,9.081086,10.115259302930387
406714.6879093886,3.8501892,2.3115492,9.035621,10.090077474204957
406715.84395469434,3.9100118,2.28762,9.112194,10.176122888122729
406717.0,3.9315479,2.2206187,9.160052,10.212481037607272
406717.90768286027,3.854975,2.5101607,9.0069065,10.113659263105108
406719.06372816593,3.9195836,2.6513422,8.832224,10.020026539139794
406720.2197734716,4.03205,2.7470584,8.734115,10.004425115354483
406721.3758187773,4.1421237,2.6513422,8.88726,10.157272986151476
406722.53186408296,4.1780176,2.60827,9.02605,10.282435609392833
406723.6879093886,4.1804104,2.5891266,9.1480875,10.385899699636617
406724.84395469434,4.1804104,2.577162,9.169623,10.40190276097605
406726.0,4.2091255,2.5628045,9.131337,10.376223773008151
406726.90768286027,4.213911,2.553233,9.119372,10.365278112168241
406728.06372816593,4.2115183,2.5891266,9.114587,10.368999909472054
406729.2197734716,4.2593765,2.5580187,9.138516,10.401837458860713
406730.3758187773,4.2617693,2.5173392,9.131337,10.386577377646985
406731.53186408296,4.3024487,2.5077677,9.102622,10.375822421773561
406732.6879093886,4.2833056,2.5436614,9.145695,10.414444642604153
406733.84395469434,4.271341,2.5460541,9.236626,10.490090813824436
406735.0,4.271341,2.5436614,9.286877,10.533786198193885
406736.90768286027,4.2976627,2.502982,9.296448,10.5431859033216
406738.06372816593,4.2809124,2.4838386,9.207911,10.453769183947228
406739.2197734716,4.2809124,2.5388756,9.145695,10.412292606423147
406740.3758187773,4.2521977,2.5628045,9.1480875,10.408489664344284
406741.53186408296,4.2354474,2.5436614,9.143302,10.392747445176406
406742.6879093886,4.2282686,2.5412683,9.1480875,10.393450092918478
406743.84395469434,4.158874,2.555626,9.193553,10.409076518287346
406745.0,4.1301594,2.627413,9.155267,10.381735383993679
406745.90768286027,4.087087,2.5939124,9.112194,10.318175283356974
406747.06372816593,4.0775156,2.6226273,9.128944,10.336436812465148
406748.2197734716,4.082301,2.6752713,9.102622,10.32860035329515
406749.3758187773,4.115802,2.7039862,9.090658,10.338831188580189
406750.53186408296,4.115802,2.711165,9.081086,10.332297164707615
406751.6879093886,4.084694,2.7901309,9.085872,10.345174020438458
406752.84395469434,4.1110163,2.8260245,9.093051,10.371617327209242
406754.0,4.137338,2.8427749,9.061943,10.359427869991809
406754.90768286027,4.175625,2.8690968,9.081086,10.39873470802055
406756.06372816593,4.1421237,2.8571322,9.049978,10.35482954735917
406757.2197734716,4.168446,2.9002047,9.071514,10.396128876125674
406758.3758187773,4.2521977,2.9073834,9.121766,10.47571851823238
406759.53186408296,4.242626,2.88824,9.131337,10.474880480513608
406760.6879093886,4.2856984,2.8571322,9.140909,10.49221771268212
406761.84395469434,4.36945,2.833203,9.049978,10.441323399942796
406763.0,4.345521,2.9002047,9.01887,10.42279982251617
406763.90768286027,4.338342,2.914562,8.956655,10.370031424727362
406765.06372816593,4.350307,2.9025974,8.975799,10.388224600437592
406766.2197734716,4.338342,2.9313123,9.009299,10.420233758438258
406767.3758187773,4.345521,2.9600272,9.066729,10.48097746136408
406768.53186408296,4.2785196,3.0078855,9.016478,10.423530144494158
406769.6879093886,4.300056,3.048565,9.011692,10.440058566177921
406770.84395469434,4.268948,3.0940301,9.0428,10.467529370697271
406772.0,4.2785196,3.098816,9.0428,10.472851684686466
406772.90768286027,4.3120203,3.1275308,9.033228,10.48685730200162
406774.06372816593,4.245019,3.1299238,9.061943,10.485009310411527
406775.2197734716,4.300056,3.1466742,9.05955,10.510351389301007
406776.3758187773,4.314413,3.1442811,9.085872,10.538203507750751
406777.53186408296,4.2665553,3.1490672,9.0428,10.482955222554082
406778.6879093886,4.2569833,3.1586387,9.0428,10.481943383438805
406779.84395469434,4.2569833,3.1466742,8.949476,10.39791257955175
406781.0,4.2354474,3.1155663,8.87051,10.311727096270655
406782.90768286027,4.2474117,3.0892444,8.786758,10.236750131892068
406784.06372816593,4.189982,3.0748868,8.6551485,10.095666077589456
406785.2197734716,4.213911,3.046172,8.480466,9.947588318113139
406786.3758187773,4.2234826,3.046172,8.379964,9.866142395454403
406787.53186408296,4.2019467,3.048565,8.322535,9.80890888198534
406788.6879093886,4.168446,3.0366004,8.233996,9.715738477965129
406789.84395469434,4.2043395,2.988742,8.176567,9.667745201406234
406791.0,4.3120203,2.866704,8.23639,9.728804198015709
406791.90768286027,4.4101295,2.7662017,8.286641,9.786190940030453
406793.06372816593,4.5345607,2.5963054,8.293819,9.802574971751792
406794.2197734716,4.6230984,2.4694812,8.291427,9.809135431298978
406795.3758187773,4.730779,2.3498356,8.31057,9.847211332086276
406796.53186408296,4.8552103,2.234976,8.322535,9.891045121928578
406797.6879093886,4.948534,2.234976,8.317748,9.933178658477658
406798.84395469434,5.0418572,2.184725,8.387143,10.026839734096972
406800.0,5.0825367,2.1153307,8.466109,10.098604105374681
406800.90768286027,5.0945015,2.0650797,8.549861,10.164576863803791
406802.06372816593,5.1519313,2.057901,8.674292,10.296635098272867
406803.2197734716,5.056215,2.0507221,8.837009,10.385735377128306
406804.3758187773,4.9892135,1.9956853,9.0428,10.518899324797168
406805.53186408296,4.9317837,1.9167194,9.181588,10.597068553315395
406806.6879093886,4.917426,1.8616825,9.279697,10.665820015736777
406807.84395469434,4.950927,1.8042527,9.363449,10.744355873684903
406809.0,4.905462,1.7731448,9.442415,10.78734448079953
406809.90768286027,4.874354,1.7779307,9.382592,10.721632204556473
406811.06372816593,4.8552103,1.746823,9.547704,10.852792696913134
406812.2197734716,4.8839254,1.8138243,9.705635,11.015536149332933
406813.3758187773,4.974856,1.8305746,9.775029,11.119864546735368
406814.53186408296,4.998785,1.8975761,9.837245,11.196429597043032
406815.6879093886,5.001178,1.9430413,9.870746,11.234714837400444
406816.84395469434,5.125609,1.9717562,9.846817,11.274728163668001
406818.0,5.1184306,2.029186,9.80853,11.248252681661821
406819.90768286027,5.1950035,2.084223,9.708028,11.206152530084768
406821.06372816593,5.223718,2.1440456,9.679314,11.205948455574806
406822.2197734716,5.1447525,2.1392598,9.593168,11.093862404698207
406823.3758187773,5.068179,2.1584032,9.56206,11.035313053711311
406824.53186408296,4.9341764,2.1536174,9.581204,10.99016081508891
406825.6879093886,4.766673,2.0985804,9.67692,10.989449115883524
406826.84395469434,4.6661706,2.0339718,9.796566,11.040058638605847
406828.0,4.4986672,1.9358627,9.844424,10.995374248354766
406828.90768286027,4.338342,1.9238981,9.858782,10.941580220958562
406830.06372816593,4.182803,1.8138243,9.810924,10.818504021437322
406831.2197734716,4.0918727,1.8090385,9.696064,10.678468971701118
406832.3758187773,4.010514,1.8688612,9.609919,10.579575034736624
406833.53186408296,4.0296574,1.9215052,9.52856,10.52253660809036
406834.6879093886,3.9722273,1.899969,9.47113,10.444652957409657
406835.84395469434,3.9722273,1.902362,9.451987,10.42773365358352
406837.0,4.0535865,1.8712541,9.442415,10.444728644247972
406837.90768286027,4.012907,1.8449322,9.43763,10.419983561894224
406839.06372816593,4.036836,1.7875023,9.387379,10.373721311710772
406840.2197734716,4.012907,1.7659662,9.296448,10.278424228786017
406841.3758187773,4.113409,1.7803236,9.152873,10.19140666817525
406842.53186408296,4.218697,1.8090385,9.035621,10.134716154285341
406843.6879093886,4.264162,1.8042527,8.85376,9.991369851291727
406844.84395469434,4.371843,1.8377534,8.707792,9.915442011888555
406846.0,4.474738,1.8449322,8.616862,9.883186010507181
406846.90768286027,4.505846,1.8449322,8.497216,9.793319291689047
406848.06372816593,4.532168,1.87604,8.363214,9.695536151839155
406849.2197734716,4.513025,1.9334698,8.296212,9.640167719862609
406850.3758187773,4.4364514,1.9741492,8.171782,9.505650274649632
406851.53186408296,4.350307,2.079437,8.076065,9.405958489991491
406852.6879093886,4.268948,2.163189,8.035385,9.352578028257769
406853.84395469434,4.2019467,2.2421548,8.009064,9.318192977873979
406855.0,4.1421237,2.215833,7.946848,9.23144071990362
406856.90768286027,4.0679436,2.2206187,7.910954,9.168560723128067
406858.06372816593,4.087087,2.268477,7.8511314,9.137315377350394
406859.2197734716,4.0057282,2.3235137,7.8487387,9.113027680592253
406860.3758187773,3.988978,2.340264,7.7458434,9.021467233854123
406861.53186408296,3.9315479,2.368979,7.70995,8.972873530532759
406862.6879093886,3.9722273,2.368979,7.729093,9.007193226968948
406863.84395469434,4.0248713,2.3091564,7.674056,8.967883125485114
406865.0,4.082301,2.3354783,7.623805,8.95779230739343
406865.90768286027,4.0727296,2.371372,7.604662,8.94658681796271
406867.06372816593,4.063158,2.4407663,7.6429486,8.993400711989967
406868.2197734716,4.0751224,2.4120514,7.650127,8.997169424177402
406869.3758187773,4.118195,2.4264088,7.5328746,8.92138943562423
406870.53186408296,4.1038375,2.4646955,7.5113387,8.907099146200416
406871.6879093886,4.139731,2.452731,7.5089455,8.918381278723862
406872.84395469434,4.170839,2.4862316,7.530482,8.960212312500389
406874.0,4.2330546,2.5460541,7.599876,9.064174421428792
406874.90768286027,4.2593765,2.60827,7.63577,9.124162649501171
406876.06372816593,4.300056,2.6513422,7.7195215,9.225568234726742
406877.2197734716,4.321592,2.7015932,7.779344,9.30015893966798
406878.3758187773,4.3526998,2.7207365,7.8272023,9.360208250700278
406879.53186408296,4.393379,2.8092742,7.887025,9.455102533502831
406880.6879093886,4.448416,2.8523464,7.903775,9.507572989216227
406881.84395469434,4.4962745,2.895419,7.9875274,9.61251941639974
406883.0,4.5034533,2.8834543,8.131102,9.731917594178107
406883.90768286027,4.5154176,2.8786685,8.166995,9.766039922369098
406885.06372816593,4.5202036,2.9002047,8.186138,9.790622209154996
406886.2197734716,4.474738,2.9241338,8.183745,9.774841219885438
406887.3758187773,4.469952,2.88824,8.135887,9.721885540196048
406888.53186408296,4.4173083,2.9025974,8.176567,9.73621755042607
406889.6879093886,4.3790216,2.9025974,8.248354,9.779378587061109
406890.84395469434,4.345521,2.9121692,8.329713,9.836076497935476
406892.0,4.331164,2.833203,8.391929,9.859538182650645
406892.90768286027,4.2474117,2.7709875,8.456537,9.860623504972805
406894.06372816593,4.1780176,2.759023,8.506788,9.870839936772493
406895.2197734716,4.1277666,2.7039862,8.540289,9.863393669391229
406896.3758187773,4.0990515,2.6752713,8.537896,9.841492154905776
406897.53186408296,4.0679436,2.6656997,8.542682,9.83013406706567
406898.6879093886,4.0966587,2.6489491,8.588147,9.877034612285485
406899.84395469434,4.051193,2.656128,8.60729,9.876873079053563
406901.0,4.034443,2.7279153,8.669506,9.943771240744585
406902.90768286027,4.065551,2.7159507,8.710185,9.988614311938193
406904.06372816593,4.012907,2.7422726,8.748472,10.00795902959958
406905.2197734716,4.0224786,2.7374868,8.765223,10.025133530649915
406906.3758187773,3.9626558,2.7662017,8.846581,10.080501387526194
406907.53186408296,3.95787,2.7925239,8.848974,10.087976284748454
406908.6879093886,3.9674416,2.8044882,8.875296,10.118133523578635
406909.84395469434,3.9435124,2.8020954,8.875296,10.108110989065707
406911.0,3.955477,2.759023,8.896832,10.119862936239898
406911.90768286027,3.955477,2.7925239,8.880082,10.114338552585838
406913.06372816593,3.984192,2.81406,8.839402,10.095927262716783
406914.2197734716,4.012907,2.8020954,8.829831,10.095596897158245
406915.3758187773,4.008121,2.8188457,8.841795,10.108821091159665
406916.53186408296,4.058372,2.8762755,8.846581,10.149154616609469
406917.6879093886,4.063158,2.8451676,8.863332,10.15691319975108
406918.84395469434,4.051193,2.8571322,8.863332,10.155492271364782
406920.0,4.0464077,2.8595252,8.915976,10.200241549915882
406920.90768286027,4.08948,2.81406,8.89444,10.185963050571115
406922.06372816593,4.0057282,2.8906329,8.85376,10.138574017702767
406923.2197734716,3.9387267,2.8978117,8.827438,10.091310237515929
406924.3758187773,3.8980472,2.9576344,8.858545,10.12008857345212
406925.53186408296,3.8860826,2.998314,8.889653,10.154676522520436
406926.6879093886,3.905226,3.0294216,8.85376,10.13988419456665
406927.84395469434,3.8095098,3.1179593,8.899225,10.170065914898364
406929.0,3.8454032,3.1107805,8.88726,10.170913007068268
406929.90768286027,3.8310459,3.153853,8.851367,10.147433133665125
406931.06372816593,3.8310459,3.1418884,8.815474,10.11241599473822
406932.2197734716,3.8860826,3.1155663,8.714972,10.037884652878935
406933.3758187773,3.8645465,3.1897464,8.714972,10.052857240991697
406934.53186408296,3.8454032,3.2328188,8.717364,10.06134574859147
406935.6879093886,3.8884757,3.3022132,8.736507,10.116887359696841
406936.84395469434,3.9219763,3.328535,8.770008,10.167304641056582
406938.0,3.929155,3.3524642,8.765223,10.173809977881229
406939.90768286027,3.8956544,3.3763933,8.76283,10.166776506318227
406941.06372816593,3.9435124,3.3859649,8.734115,10.163700762331148
406942.2197734716,3.9100118,3.4194658,8.695828,10.129085014901044
406943.3758187773,3.9411197,3.3165705,8.621648,10.043150830645846
406944.53186408296,3.929155,3.3716075,8.643184,10.075248175898063
406945.6879093886,3.926762,3.4457877,8.592933,10.056411398734854
406946.84395469434,3.905226,3.4768956,8.657541,10.113980882474337
406948.0,3.933941,3.5462897,8.624041,10.120580299443708
406948.90768286027,3.8932614,3.5534685,8.626433,10.109400032282391
406950.06372816593,3.8908687,3.5797906,8.6048975,10.099406961103918
406951.2197734716,3.8645465,3.6755068,8.624041,10.139928651484166
406952.3758187773,3.874118,3.7281508,8.578575,10.124220843901503
406953.53186408296,3.8717253,3.7305436,8.547467,10.097841574626235
406954.6879093886,3.8501892,3.649185,8.492431,10.013086054248342
406955.84395469434,3.878904,3.7377224,8.449359,10.020385845443215
406957.0,3.8836899,3.7903664,8.451752,10.044005005729288
406957.90768286027,3.902833,3.8621538,8.502003,10.120888914159291
406959.06372816593,3.902833,3.8980472,8.494823,10.128617635227714
406960.2197734716,3.8812969,3.9171906,8.502003,10.133750679520736
406961.3758187773,3.907619,3.9506912,8.5043955,10.158847869091193
406962.53186408296,3.9315479,3.9602628,8.518753,10.18380591969757
406963.6879093886,3.9626558,3.9626558,8.47568,10.160828383598814
406964.84395469434,3.9530842,3.9171906,8.408679,10.083508288986478
406966.0,3.984192,3.9506912,8.403893,10.104808974249362
406966.90768286027,4.000942,3.9147975,8.32732,10.033814565546358
406968.06372816593,3.988978,3.988978,8.296212,10.032498418535235
406969.2197734716,4.000942,4.010514,8.322535,10.067588999248281
406970.3758187773,3.9961565,4.063158,8.360821,10.118391547054168
406971.53186408296,4.034443,4.0966587,8.358428,10.1450806529923
406972.6879093886,4.0296574,4.120588,8.334499,10.133176096768462
406973.84395469434,4.008121,4.120588,8.31057,10.104942015730966
406975.0,4.0057282,4.189982,8.324927,10.144270162408347
406976.90768286027,3.955477,4.170839,8.293819,10.091042060471802
406978.06372816593,3.9315479,4.1612673,8.269891,10.058047105871234
406979.2197734716,3.8836899,4.166053,8.248354,10.023691363339507
406980.3758187773,3.8214743,4.1253734,8.176567,9.92363942414662
406981.53186408296,3.8358316,4.213911,8.1526375,9.946665179138474
406982.6879093886,3.8142955,4.276127,8.164602,9.974709925599504
406983.84395469434,3.7807949,4.271341,8.157424,9.95401076601402
406985.0,3.7664373,4.2856984,8.164602,9.960621794295667
406985.90768286027,3.7257578,4.319199,8.217246,10.002993702406187
406987.06372816593,3.6348274,4.338342,8.155031,9.926616349376848
406988.2197734716,3.668328,4.3526998,8.159817,9.949132592241046
406989.3758187773,3.596541,4.3335567,8.119137,9.881052902477798
406990.53186408296,3.5845764,4.3287706,8.0641,9.82940240731151
406991.6879093886,3.5821834,4.3048415,8.052135,9.808189247235333
406992.84395469434,3.5582542,4.249805,8.001884,9.734072274197406
406994.0,3.543897,4.338342,8.035385,9.795296287187949
406994.90768286027,3.5247536,4.3550925,8.04735,9.80563922683112
406996.06372816593,3.5534685,4.405344,8.042564,9.834481675864991
406997.2197734716,3.512789,4.493881,8.102386,9.908749259804589
406998.3758187773,3.462538,4.532168,8.138281,9.937873707017461
406999.53186408296,3.4529665,4.527382,8.109566,9.908845852691536
407000.6879093886,3.4792883,4.513025,8.052135,9.864568910163632
407001.84395469434,3.4673238,4.524989,8.042564,9.858026956661432
407003.0,3.4984317,4.4867024,8.049743,9.857377194354472
407003.90768286027,3.462538,4.5154176,8.049743,9.857815572929063
407005.06372816593,3.491253,4.5202036,7.970777,9.805833675888602
407006.2197734716,3.4577522,4.4603806,7.939669,9.741118478030241
407007.3758187773,3.4290373,4.424487,7.8822393,9.667682162774323
407008.53186408296,3.43143,4.493881,7.887025,9.704372294882653
407009.6879093886,3.4266443,4.5776334,7.9803486,9.817463138766552
407010.84395469434,3.4170728,4.5776334,8.0114565,9.839438465516599
407012.0,3.3931437,4.606348,8.0306,9.86014210982548
407013.90768286027,3.35725,4.5991693,7.9492407,9.778236728526212
407015.06372816593,3.3237493,4.5680614,7.9875274,9.783408829706095
407016.2197734716,3.3117847,4.57524,7.9803486,9.776845234239726
407017.3758187773,3.3476784,4.5656686,7.9516335,9.76118618576527
407018.53186408296,3.3692145,4.5489182,7.889418,9.71015857316581
407019.6879093886,3.3644288,4.6015625,7.889418,9.733276682104526
407020.84395469434,3.3261423,4.6015625,7.867882,9.702637126430089
407022.0,3.3141778,4.580026,7.903775,9.717513668697043
407022.90768286027,3.2926416,4.587205,7.908561,9.717472691435596
407024.06372816593,3.2711053,4.5728474,7.91574,9.7092740704429
407025.2197734716,3.201711,4.611134,7.9444547,9.727685776885943
407026.3758187773,3.1801748,4.5537043,7.891811,9.650410119270296
407027.53186408296,3.1371026,4.4651666,7.884632,9.5888762252991
407028.6879093886,3.1059947,4.513025,7.9061685,9.618840786573262
407029.84395469434,3.1562457,4.57524,7.9300976,9.684067116759067
407031.0,3.1658175,4.625491,7.9540267,9.730575942805244
407032.90768286027,3.1394954,4.6230984,8.023421,9.777768391915648
407034.06372816593,3.1323166,4.5895977,7.994706,9.736074073101376
407035.2197734716,3.1562457,4.618313,7.958812,9.72796948679844
407036.3758187773,3.125138,4.618313,7.9540267,9.714002430992382
407037.53186408296,3.1442811,4.663778,7.98992,9.771189818824585
407038.6879093886,3.1442811,4.6494203,8.016242,9.785895388999073
407039.84395469434,3.1801748,4.611134,7.9994917,9.765650822289313
407041.0,3.2184613,4.6518135,7.9875274,9.787668565298414
407041.90768286027,3.2232473,4.661385,7.97317,9.782089404829742
407043.06372816593,3.2447834,4.6422415,7.992313,9.795718072056118
407044.2197734716,3.2711053,4.637456,7.985134,9.796351006042
407045.3758187773,3.2711053,4.6230984,7.9875274,9.791514829969948
407046.53186408296,3.2639267,4.6278844,8.035385,9.83045999030367
407047.6879093886,3.2615337,4.6230984,7.9372764,9.747358490499629
407048.84395469434,3.2854629,4.6207056,8.018635,9.820575032673634
407050.0,3.2423904,4.611134,8.009064,9.793914356786267
407050.90768286027,3.2304258,4.618313,8.028207,9.80900471251409
407052.06372816593,3.2352118,4.5919905,8.023421,9.794297151209499
407053.2197734716,3.22564,4.6039553,8.025814,9.798716659675087
407054.3758187773,3.2352118,4.6159196,8.001884,9.787924023713067
407055.53186408296,3.2352118,4.5895977,8.018635,9.789254808305355
407056.6879093886,3.2304258,4.556097,8.0114565,9.766120313313106
407057.84395469434,3.2208543,4.5895977,8.037778,9.800213500070178
407059.0,3.2328188,4.5991693,7.985134,9.765543540512834
407059.90768286027,3.2184613,4.625491,8.001884,9.786920234687452
407061.06372816593,3.2160685,4.6278844,8.0306,9.810756697444678
407062.2197734716,3.1490672,4.630277,8.073672,9.825490770970621
407063.3758187773,3.1682103,4.5895977,8.076065,9.814519317679107
407064.53186408296,3.1586387,4.5967765,8.044957,9.78921272421531
407065.6879093886,3.1706033,4.63267,8.009064,9.780565564984823
407066.84395469434,3.1849606,4.5656686,8.0114565,9.755651646095743
407068.0,3.1993182,4.5895977,8.018635,9.777451163566173
407068.90768286027,3.2112827,4.580026,7.9875274,9.751388039953392
407070.06372816593,3.2160685,4.5704546,8.013849,9.770052591575666
407071.2197734716,3.175389,4.5895977,7.9827414,9.740208550561956
407072.3758187773,3.206497,4.5704546,8.001884,9.757091052722945
407073.53186408296,3.1945324,4.5728474,7.934883,9.69939888972639
407074.6879093886,3.1897464,4.563276,7.985134,9.734492023030528
