timestamp,accel_x,accel_y,accel_z,magnitude
1097737.7438845402,0.28475606,-0.69155043,-9.7917795,9.820299068132302
1097755.8292563602,-0.22493336,-0.84708947,-9.6912775,9.730828082369557
1097773.91462818,-0.17228939,-0.80880296,-9.830067,9.864789054333617
1097792.0,0.26082698,-0.92366254,-9.597955,9.64582414225556
1097810.7438845402,0.48576033,-0.48576033,-9.901854,9.925655587099495
1097828.8292563602,0.4402951,-0.47618872,-9.818102,9.83949909063176
1097846.91462818,0.51208234,-0.20100428,-9.964069,9.979243562529135
1097865.0,0.5049036,-0.42593765,-9.858782,9.880887260287128
1097882.7438845402,0.677193,-0.37090075,-9.932961,9.962924869390543
1097900.8292563602,0.5312256,-0.6460852,-9.820495,9.856051378152378
1097918.91462818,0.07418015,-0.6221561,-9.770244,9.790314025962457
1097937.0,0.08375178,-0.5360114,-9.765458,9.780515964474837
1097954.7438845402,0.5360114,-0.6269419,-9.784601,9.819306548637057
1097972.8292563602,0.5934412,-0.42833054,-9.877925,9.905000848812639
1097990.91462818,0.69872916,-0.4139731,-9.930569,9.963724044267732
1098009.0,0.5599405,-0.46183127,-9.873138,9.899781586102497
1098027.7438845402,0.7322299,-0.5623334,-9.868353,9.911446433887367
1098045.8292563602,0.0598227,-0.22971918,-9.875532,9.878384581505175
1098063.91462818,0.07657306,-0.30629224,-9.684099,9.68924413004456
1098082.0,0.10289505,-0.7322299,-9.712814,9.740919043722954
1098099.7438845402,0.60779864,-0.84230363,-9.801352,9.856236382098444
1098117.8292563602,0.57908374,-0.55754757,-9.853995,9.886729223093463
1098135.91462818,0.55754757,-0.38765112,-9.923389,9.946596499756646
1098154.0,0.45465255,-0.46183127,-9.853995,9.875283009777304
1098171.7438845402,0.45225963,-0.48336744,-9.810924,9.833230018094557
1098189.8292563602,0.6197632,-0.57908374,-9.8922825,9.928579831064102
1098207.91462818,0.34218585,-0.49293905,-9.775029,9.793430043340082
1098226.0,0.32064968,-0.44747382,-9.839638,9.855025368202433
1098244.7438845402,0.42593765,-0.5072965,-9.806137,9.828483885288145
1098262.8292563602,0.5910483,-0.6556568,-9.830067,9.869622138501965
1098280.91462818,0.6293348,-0.71787244,-9.779816,9.82630165039007
1098299.0,0.4737958,-0.53840435,-9.853995,9.880059674122498
1098317.7438845402,0.5695121,-0.28236315,-9.873138,9.89358008748948
1098335.8292563602,0.6221561,-0.22254045,-9.899461,9.921488323592103
1098353.91462818,0.6221561,-0.45704544,-9.909033,9.939059499876285
1098372.0,0.45943835,-0.3828653,-9.875532,9.893624296405175
1098389.7438845402,0.3852582,-0.47618872,-9.851603,9.870626183142157
1098407.8292563602,0.41875893,-0.5599405,-9.7176,9.742722523247544
1098425.91462818,0.38765112,-0.60301286,-9.736743,9.763096954768587
1098444.0,0.5695121,-0.571905,-9.842031,9.87506929423953
1098461.7438845402,0.4737958,-0.3278284,-9.856388,9.873213171328178
1098479.8292563602,0.54797596,-0.234505,-9.8922825,9.910223171431063
1098497.91462818,0.64369226,-0.32064968,-9.906639,9.932706188103474
1098516.0,0.4785816,-0.42115182,-9.889889,9.91041440282236
1098533.7438845402,0.40679437,-0.46901,-9.784601,9.804278085038424
1098551.8292563602,0.2991135,-0.5072965,-9.755886,9.773644676874154
1098569.91462818,0.55754757,-0.6652284,-9.775029,9.813489698767736
1098588.0,0.74658734,-0.67240715,-9.798959,9.850336111793363
1098606.7438845402,0.58626246,-0.48336744,-9.822887,9.852231055391789
1098624.8292563602,0.48336744,-0.31347096,-9.851603,9.868434009224792
1098642.91462818,0.46661708,-0.33022133,-9.853995,9.870562045099543
1098661.0,0.4737958,-0.40200856,-9.86596,9.885507577459586
1098678.7438845402,0.42593765,-0.3254355,-9.813316,9.827944956205432
1098696.8292563602,0.4139731,-0.34218585,-9.784601,9.799330671666551
1098714.91462818,0.4402951,-0.40679437,-9.772636,9.791003821010577
1098733.0,0.6556568,-0.56711924,-9.813316,9.851531910704061
1098750.7438845402,0.62454903,-0.5910483,-9.82528,9.862835629888943
1098768.8292563602,0.5838696,-0.45704544,-9.810924,9.83890359632642
1098786.91462818,0.47140288,-0.39722276,-9.851603,9.870870694419176
1098805.0,0.47140288,-0.31586388,-9.899461,9.91571070354929
1098822.7438845402,0.49054617,-0.33979294,-9.839638,9.857716305413721
1098840.8292563602,0.5168682,-0.41875893,-9.858782,9.881199031552294
1098858.91462818,0.5240469,-0.46901,-9.839638,9.864738795555796
1098877.0,0.52165395,-0.5240469,-9.748708,9.776709858956346
1098895.7438845402,0.5838696,-0.60779864,-9.779816,9.816064582634224
1098913.8292563602,0.5360114,-0.5336185,-9.815709,9.844805741971408
1098931.91462818,0.5312256,-0.39004403,-9.822887,9.844970492500371
1098950.0,0.48097453,-0.42354473,-9.851603,9.872426667563984
1098967.7438845402,0.5168682,-0.34936458,-9.8922825,9.911935300723874
1098985.8292563602,0.416366,-0.43790218,-9.779816,9.798465183846947
1099003.91462818,0.5001178,-0.416366,-9.80853,9.830093550965465
1099022.0,0.5527618,-0.4785816,-9.861175,9.888243440370124
1099039.7438845402,0.54079723,-0.46901,-9.806137,9.832230412619747
1099057.8292563602,0.5695121,-0.40679437,-9.853995,9.878817902539508
1099075.91462818,0.6748001,-0.4498667,-9.832459,9.865849441858005
1099094.0,0.54558307,-0.3804724,-9.894675,9.917006276546232
1099111.7438845402,0.5168682,-0.28714898,-9.880318,9.897994294502816
1099129.8292563602,0.42833054,-0.3230426,-9.868353,9.882925402203563
1099147.91462818,0.598227,-0.31586388,-9.868353,9.891513355742218
1099166.0,0.51208234,-0.39243692,-9.806137,9.827337275268818
1099184.7438845402,0.64369226,-0.62454903,-9.779816,9.820855472427738
1099202.8292563602,0.5695121,-0.54797596,-9.815709,9.84747504985239
1099220.91462818,0.5072965,-0.45704544,-9.772636,9.796461333646606
1099239.0,0.5336185,-0.48336744,-9.789387,9.815828575385952
1099257.7438845402,0.5336185,-0.3565433,-9.863567,9.884423391974169
1099275.8292563602,0.55754757,-0.3278284,-9.8922825,9.913404249422381
1099293.91462818,0.60301286,-0.35893622,-9.923389,9.948171136680061
1099312.0,0.5360114,-0.4498667,-9.844424,9.869264013110342
1099329.7438845402,0.57908374,-0.442688,-9.801352,9.828418574276352
1099347.8292563602,0.54079723,-0.5288327,-9.784601,9.813793476417056
1099365.91462818,0.5025107,-0.5264398,-9.746315,9.773449337151318
1099384.0,0.53840435,-0.442688,-9.789387,9.814170863868833
1099402.7438845402,0.4737958,-0.3254355,-9.885103,9.901800444634647
1099420.8292563602,0.57669085,-0.31347096,-9.86596,9.887770380669094
1099438.91462818,0.50968945,-0.3565433,-9.901854,9.921371835463694
1099457.0,0.5144752,-0.39961565,-9.820495,9.842078004373109
1099474.7438845402,0.45465255,-0.36611494,-9.818102,9.835439795602264
1099492.8292563602,0.4785816,-0.45943835,-9.796566,9.819003479868275
1099510.91462818,0.598227,-0.4737958,-9.82528,9.854871134724524
1099529.0,0.50968945,-0.45704544,-9.806137,9.830004920265049
1099546.7438845402,0.5431901,-0.40679437,-9.856388,9.879722746653659
1099564.8292563602,0.571905,-0.36611494,-9.858782,9.882140355299564
1099582.91462818,0.4785816,-0.33979294,-9.822887,9.840406932881455
1099601.0,0.52165395,-0.37568656,-9.84921,9.870167215352293
1099618.7438845402,0.5049036,-0.4115802,-9.856388,9.877889972705153
1099636.8292563602,0.45704544,-0.48815325,-9.822887,9.845623045012406
1099654.91462818,0.5360114,-0.46661708,-9.834852,9.860494591154223
1099673.0,0.5072965,-0.5551547,-9.775029,9.80391444427609
1099691.7438845402,0.5025107,-0.52165395,-9.806137,9.832851199419936
1099709.8292563602,0.42115182,-0.45943835,-9.820495,9.840252765959065
1099727.91462818,0.5360114,-0.46661708,-9.820495,9.846174981448515
1099746.0,0.62454903,-0.45465255,-9.842031,9.87230189150719
1099763.7438845402,0.5360114,-0.31825677,-9.815709,9.835483656905836
1099781.8292563602,0.42354473,-0.37329367,-9.904246,9.920323942840216
1099799.91462818,0.5240469,-0.5240469,-9.844424,9.872281104110398
1099818.0,0.5025107,-0.4977249,-9.80853,9.833997551382373
1099835.7438845402,0.6484781,-0.50968945,-9.813316,9.847917449769618
1099853.8292563602,0.36372203,-0.55754757,-9.813316,9.835869251051289
1099871.91462818,0.5431901,-0.45943835,-9.798959,9.824751221576541
1099890.0,0.48336744,-0.39004403,-9.818102,9.837728666201096
1099907.7438845402,0.69155043,-0.5312256,-9.899461,9.93779506358677
1099925.8292563602,0.6269419,-0.5886554,-9.889889,9.927208860412165
1099943.91462818,0.40440148,-0.34697166,-9.796566,9.811046594641438
1099962.0,0.4091873,-0.4450809,-9.715207,9.73400114582257
1099980.7438845402,0.27757734,-0.54079723,-9.796566,9.815407083560679
1099998.8292563602,0.40679437,-0.50968945,-9.875532,9.897039824004397
1100016.91462818,-0.11246668,-0.45704544,-9.818102,9.829377710248956
1100035.0,0.68915755,-1.1031306,-9.705635,9.792404505666795
1100052.7438845402,1.301742,-0.5025107,-9.822887,9.921499798566117
1100070.8292563602,0.59583414,0.071787246,-9.760673,9.779105743574245
1100088.91462818,0.9954498,-0.49293905,-9.973641,10.035308864614779
1100107.0,0.7776951,-0.3613291,-10.026285,10.062890205517292
1100125.7438845402,0.3517575,-0.07657306,-9.858782,9.865352466883685
1100143.8292563602,0.46422416,-0.16750357,-9.810924,9.82332892915973
1100161.91462818,0.6269419,-0.5695121,-9.609919,9.647172817182401
1100180.0,0.2943277,-0.5144752,-9.770244,9.788206237403172
1100197.7438845402,1.0576653,-0.5025107,-9.889889,9.958969691828548
1100215.8292563602,0.98827106,-0.7513731,-9.813316,9.891532345359497
1100233.91462818,0.7872668,-0.5886554,-9.875532,9.9243355685585
1100252.0,1.1150951,-0.035893623,-9.906639,9.969263849980955
1100270.7438845402,0.8446966,-0.8518753,-9.830067,9.903000610789169
1100288.8292563602,0.6676214,-0.5910483,-9.755886,9.796548783712907
1100306.91462818,0.6389065,-0.5072965,-9.832459,9.8662455494142
1100325.0,0.3230426,-0.2680057,-10.157895,10.16656354958116
1100342.7438845402,0.30629224,-0.7896597,-9.935354,9.971390900140477
1100360.8292563602,0.46422416,-1.433352,-9.638634,9.755678726392526
1100378.91462818,1.9406484,-3.3524642,-8.714972,9.537078660967843
1100397.0,-0.58626246,3.668328,-8.193317,8.996153480798238
1100414.7438845402,-2.9743848,35.1925,-17.063828,39.2241411276532
1100432.8292563602,27.583052,-74.87888,7.243333,80.12575928275496
1100450.91462818,55.76433,-28.79147,-19.384949,65.68398201116008
1100469.0,62.136646,0.22014755,-15.6256895,64.07162721067334
1100486.7438845402,56.312305,-78.40124,0.8997334,96.53310130800575
1100504.8292563602,-4.0535865,-78.40124,24.986746,82.38642772155556
1100522.91462818,-25.570616,78.36774,-52.69423,97.83680774953747
1100541.0,67.77434,-77.82455,7.5639825,103.47577289587358
1100559.7438845402,-78.40124,72.794655,7.2576904,107.2310137042865
1100577.8292563602,50.313286,-67.14021,-9.827674,84.47376943887475
1100595.91462818,-75.481895,78.36774,-21.593603,110.92926951900581
1100614.0,-7.5017667,-44.596626,29.588308,54.04260841695161
1100631.7438845402,55.017742,66.38645,-32.464584,92.13067834697691
1100649.8292563602,-7.5089455,-31.344704,2.2565124,32.310471670666466
1100667.91462818,25.520365,-78.40124,-6.9370403,82.74156145127218
1100686.0,-41.411667,78.36774,-38.48514,96.63092070991608
1100703.7438845402,25.833836,-73.969574,-3.3333209,78.42191013000607
1100721.8292563602,33.273388,-77.51108,-5.312256,84.51808052466929
1100739.91462818,-43.093884,78.36774,-39.533234,97.78272905483776
1100758.0,5.7932305,-64.25676,2.5723763,64.56864444258167
1100776.7438845402,-9.17441,-63.469494,-7.697985,64.58951494263106
1100794.8292563602,54.354908,67.7863,-42.182182,96.58558365335682
1100812.91462818,-76.06815,26.171236,0.71787244,80.44757534587546
1100831.0,29.538057,-61.64849,1.6750357,68.38010584381705
1100848.7438845402,78.36774,7.133259,-16.64507,80.43285654490694
1100866.8292563602,-78.40124,78.36774,-2.1799393,110.87384381177053
1100884.91462818,10.452223,-78.40124,-4.714029,79.23525395044916
1100903.0,31.569637,-38.41814,-25.082462,55.693135675348834
1100920.7438845402,61.74421,63.641785,-15.745336,90.05853581012309
1100938.8292563602,-78.40124,61.77053,1.2849916,99.81985781111177
1100956.91462818,35.307358,-78.40124,-4.8552103,86.12164088970316
1100975.0,43.292492,-14.21866,-26.8915,52.91089611805553
1100992.7438845402,4.3550925,78.36774,-17.126043,80.33536489136652
1101010.8292563602,-78.40124,3.4194658,1.7635733,78.49558822430369
1101028.91462818,40.61483,-78.40124,-0.60779864,88.29885768600455
1101047.0,52.897625,8.566611,-27.003967,60.00633123598738
1101065.7438845402,-22.230116,78.36774,-6.432137,81.71323709453581
1101083.8292563602,-77.41536,-7.9540267,-1.8568966,77.84505488248438
1101101.91462818,41.378166,-78.40124,-8.34407,89.0422964619964
1101120.0,62.959805,4.0416217,-29.80367,69.77485576533165
1101138.7438845402,-20.885302,78.36774,-5.0466433,81.25987399040339
1101156.8292563602,-60.748756,13.610861,-2.9504557,62.32473089830809
1101174.91462818,10.296683,-78.40124,0.5072965,79.07612448823603
1101193.0,77.872406,-30.636402,-29.509342,88.73275612200605
1101210.7438845402,-14.563239,78.36774,-9.114587,80.22883707906584
1101228.8292563602,-49.284336,45.606434,-7.78413,67.59796799471233
1101246.91462818,-41.32313,-75.24021,14.769029,87.10232196356101
1101265.0,76.9296,-71.86621,-26.214308,108.49011678417054
1101282.7438845402,37.86538,63.263702,-24.386126,77.6580075367446
1101300.8292563602,-60.06678,78.36774,-6.7791085,98.97210235379852
1101318.91462818,-29.676846,-57.74087,2.4886243,64.96858092779283
1101337.0,17.937239,-78.25049,2.1416528,80.30859483827973
1101355.7438845402,78.36774,-12.163152,-28.674217,84.3306329861563
1101373.8292563602,-28.540215,78.36774,-12.593875,84.34839792473505
1101391.91462818,-65.319214,39.985493,3.280677,76.65639053340024
1101410.0,-11.167702,-78.40124,6.271812,79.44059181087304
1101427.7438845402,58.384563,-49.98067,-24.280838,80.60014680093401
1101445.8292563602,61.82796,59.116795,-26.190378,89.46188008652909
1101463.91462818,-74.239975,78.36774,-1.9191123,107.96647420717338
1101482.0,-19.325127,-74.17058,8.446965,77.11087270167388
1101499.7438845402,25.90323,-73.83797,-5.6376915,78.45257614382699
1101517.8292563602,73.031555,6.7767158,-32.8307,80.35786685348234
1101535.91462818,-31.05516,78.36774,-14.85278,85.59515587380865
1101554.0,-75.58718,22.385654,9.803744,79.43961657622508
1101571.7438845402,38.075954,-78.40124,-0.9451987,87.16321533267458
1101589.8292563602,14.4077,0.57908374,-23.835758,27.857862744699137
1101607.91462818,67.9227,48.882328,-16.853252,85.3639693838395
1101626.0,-78.40124,78.36774,6.506317,111.04318649583904
1101644.7438845402,5.3385777,-78.40124,-11.007378,79.34996670340462
1101662.8292563602,30.81587,-53.88111,-12.77813,63.37248981210933
1101680.91462818,77.02293,21.208344,-18.691006,82.0468116766232
1101699.0,-66.27877,78.36774,2.1488314,102.65960988532015
1101716.7438845402,-64.022255,-45.235535,5.2978983,78.56952646171665
1101734.8292563602,44.4028,-78.40124,-8.88726,90.53919853679511
1101752.91462818,36.826855,11.998041,-21.308847,44.20675511161292
1101771.0,0.96434194,76.759705,-11.497924,77.62206209174066
1101788.7438845402,-75.18757,39.772526,-9.696064,85.60980179872904
1101806.8292563602,0.36611494,-78.40124,0.9164838,78.40745128010829
1101824.91462818,55.814583,-53.792572,-15.821908,79.11536671595182
1101843.0,28.178886,53.82368,-14.055943,62.35870170683996
1101861.7438845402,-30.322931,76.51084,-6.99447,82.59728441369765
1101879.8292563602,-57.75523,-0.90451926,-4.158874,57.91183799874156
1101897.91462818,-6.5852833,-78.40124,1.720501,78.69612768980352
1101916.0,70.13853,-57.12111,-14.575203,91.62243797609955
1101933.7438845402,34.03194,53.299633,-21.60796,66.82759724440112
1101951.8292563602,-39.38248,78.36774,-13.292604,88.7083746032967
1101969.91462818,-39.46384,2.8044882,-5.4055796,39.93094179231783
1101988.0,-24.51295,-72.19643,9.574025,76.8431595989391
1102006.7438845402,55.642292,-65.455605,-15.900874,87.36898007240994
1102024.8292563602,76.33377,-4.6661706,-20.26554,79.11579931955946
1102042.91462818,-32.23008,78.36774,-14.749886,86.0106962332418
1102061.0,-61.49056,68.96122,-7.8319883,92.7258263577809
1102078.7438845402,-12.713521,-67.86048,9.382592,69.6757590176548
1102096.8292563602,-4.917426,-72.215576,0.2967206,72.38341342180345
1102114.91462818,78.36774,-32.950344,-23.292568,88.1463077301628
1102133.0,8.432608,76.568275,-34.316696,84.32938537967478
1102151.7438845402,-78.40124,78.36774,0.911698,110.85616040386932
1102169.8292563602,4.5919905,-76.74774,7.205046,77.22185351130732
1102187.91462818,0.7944455,-64.4817,-5.3074703,64.7046367699244
1102206.0,77.64269,-18.693398,-26.585209,84.1700883734607
1102223.7438845402,-29.983139,78.36774,-25.867336,87.80438695610725
1102241.8292563602,-78.40124,59.650414,8.411072,98.87200036460364
1102259.91462818,31.717997,-78.40124,-4.0296574,84.67008861452186
1102278.0,-0.14357449,-17.578302,-19.368198,26.156154316041697
1102295.7438845402,78.36774,13.687434,-18.616825,81.70333344051869
1102313.8292563602,-78.40124,78.36774,0.6173703,110.8541305154324
1102331.91462818,-37.779232,-60.935406,3.4075012,71.77746958010334
1102350.0,41.772995,-76.61374,-10.918839,87.94242044181833
1102367.7438845402,35.656723,5.841089,-31.253773,47.7736176413319
1102385.8292563602,24.594309,70.72001,-11.098308,75.69261714361873
1102403.91462818,-78.40124,67.097145,3.4194658,103.24957165550855
1102422.0,10.507259,-78.40124,6.350778,79.35672187304593
1102440.7438845402,55.09671,-67.65469,-30.976194,92.58687340301451
1102458.8292563602,31.729961,37.93238,-13.943476,51.38167378052701
1102476.91462818,-29.743847,78.36774,-11.641498,84.62696723120244
1102495.0,-72.643906,0.9164838,11.933433,73.62325614001318
1102512.7438845402,43.79022,-78.40124,-10.792015,90.44780477682266
1102530.8292563602,63.76143,-46.798103,-26.254988,83.33610739003623
1102548.91462818,-6.5254602,72.366325,-11.488352,73.56255063891757
1102567.0,-38.28892,58.879898,-6.484781,70.53322740293942
1102584.7438845402,-58.93972,-21.38542,18.573753,65.39274487861638
1102602.8292563602,46.123302,-77.56612,-15.620904,91.58534053556181
1102620.91462818,77.29811,-45.757187,-23.39307,92.82216166277301
1102639.0,-29.40166,78.36774,-13.673077,84.81104478846565
1102656.7438845402,-42.636837,55.66622,-12.665663,71.25339948158641
1102674.8292563602,-36.233414,-37.238434,23.448107,57.0032891923896
1102692.91462818,30.303787,-72.22036,-14.795351,79.70572323418294
1102711.0,78.36774,-47.18336,-24.565594,94.71663286968153
1102729.7438845402,-30.007067,77.7384,-11.217953,84.08046963482482
1102747.8292563602,-59.272335,70.2151,-7.98992,92.2345314183827
1102765.91462818,-1.4907818,-59.504444,13.529502,61.04136884517214
1102784.0,-17.910917,-39.226944,-3.3213565,43.25026580681462
1102801.7438845402,78.36774,-55.37907,-36.240593,102.57545831125566
1102819.8292563602,14.63024,63.328312,-16.738392,67.11700820189029
1102837.91462818,-78.40124,78.36774,3.3500714,110.90302107981684
1102856.0,3.9746203,-67.36754,3.6778998,67.58483557070782
1102873.7438845402,-13.036563,-40.349216,1.0289505,42.41544466110281
1102891.8292563602,75.64222,-49.801205,-32.754128,96.30544308096405
1102909.91462818,26.494278,63.625034,-22.256437,72.42541478084478
1102928.0,-78.40124,78.36774,7.305548,111.09288068020157
1102946.7438845402,31.275309,-78.40124,-1.7396442,84.42704394046777
1102964.8292563602,-19.296412,-25.400719,-3.1634245,32.055503370839546
1102982.91462818,77.81498,-36.841213,-29.767776,91.09646851386691
1103001.0,-22.299511,74.60848,-18.499573,80.03703942508025
1103019.7438845402,-78.40124,67.22875,3.0389934,103.32325363143258
1103037.8292563602,41.974,-78.40124,4.862389,89.06297736054483
1103055.91462818,6.350778,-41.746674,-15.628083,45.02614961910966
1103074.0,71.95475,-4.8456388,-25.699833,76.56009194855017
1103091.7438845402,-10.617333,73.12248,-11.988469,74.85551569755731
1103109.8292563602,-78.40124,59.073723,4.5225964,98.26959377557039
1103127.91462818,21.36867,-78.40124,5.5252247,81.44877285197114
1103146.0,41.887856,-64.27112,-22.560337,79.96460561951584
1103163.7438845402,29.920923,11.103093,-27.939594,42.41652060487062
1103181.8292563602,9.428058,73.07463,-9.94014,74.3478056872418
1103199.91462818,-77.255035,62.68701,2.495803,99.52000144798097
1103218.0,-37.74573,-59.825096,13.127494,71.94521070482838
1103236.7438845402,70.74154,-78.40124,-27.303082,109.0714362324432
1103254.8292563602,29.341839,6.5541754,-32.22051,44.0688324752992
1103272.91462818,-1.2179902,74.61566,-12.25169,75.62462644680632
1103291.0,-49.901707,36.889072,4.2976627,62.204934685425116
1103308.7438845402,-70.38261,-33.34757,18.59529,80.07219883018762
1103326.8292563602,72.672615,-78.40124,-21.875965,109.11746537175911
1103344.91462818,50.174496,-15.472544,-28.430141,59.70889869999138
1103363.0,-23.809435,78.36535,-14.9317465,83.25247341179714
1103380.7438845402,-37.410725,49.334587,-5.2883267,62.14040729486834
1103398.8292563602,-53.510212,-32.943165,21.636675,66.45856313190795
1103416.91462818,23.603645,-64.50562,-8.710185,69.23853256391739
1103435.0,78.36774,-65.86479,-32.177437,107.30825078408775
1103452.7438845402,-13.866902,70.17921,-14.422057,72.97539458895
1103470.8292563602,-56.09934,75.07749,-9.80853,94.23360713618365
1103488.91462818,-17.630947,-43.78543,15.754907,49.76174501542683
1103507.0,-22.344976,-32.055397,2.239762,39.139020977597646
1103525.7438845402,78.36774,-74.1299,-38.18842,114.433824408756
1103543.8292563602,22.07697,41.689243,-17.22894,50.221727965269665
1103561.91462818,-77.90352,78.36774,-3.6132913,110.56001526373201
1103580.0,-15.235646,-36.219055,9.69367,40.47112664850388
1103597.7438845402,-15.747728,-54.29987,4.5393467,56.719242657511614
1103615.8292563602,59.849026,-48.997185,-36.8125,85.6609024428467
1103633.91462818,67.87005,14.565632,-22.182259,72.87354758007191
1103652.0,-78.40124,78.36774,-0.17707519,110.85255279815668
1103669.7438845402,-31.059948,-24.240158,4.862389,39.69821729517572
1103687.8292563602,30.729725,-69.10958,4.4388447,75.76379998800708
1103705.91462818,18.090385,-17.111687,-30.574186,39.431620699595776
1103724.0,75.42925,22.306688,-20.244003,81.22179351969429
1103741.7438845402,-78.40124,78.36774,4.453202,110.94182310696903
1103759.8292563602,34.87424,-73.46467,-3.9171906,81.41630509906003
1103777.91462818,-0.17707519,-36.64021,-0.105287954,36.64078915662532
1103796.0,65.699684,-18.475643,-28.583286,73.99190564190857
1103814.7438845402,-8.415857,64.40034,-15.111215,66.6826758606482
1103832.8292563602,-78.40124,67.31011,-0.13639577,103.3316212277528
1103850.91462818,53.424065,-78.40124,11.244275,95.53700264786126
1103869.0,12.47423,-36.376987,-26.951324,46.960254073461364
1103887.7438845402,69.83942,23.79747,-25.424648,78.04022610334496
1103905.8292563602,-61.253662,78.36774,-7.8248096,99.77345050861024
1103923.91462818,-55.6064,-10.3924,7.7889156,57.1028975179362
1103942.0,41.74428,-78.40124,1.1342385,88.82919476856065
1103959.7438845402,51.102943,-49.0259,-34.943638,78.96902868052952
1103977.8292563602,12.500552,66.065796,-16.915468,69.33315411170435
1103995.91462818,-56.14002,74.30698,-4.83846,93.2557763223941
1104014.0,-62.179718,-39.85149,23.771149,77.58560504732708
1104031.7438845402,72.45008,-78.40124,-26.336346,109.95167868739303
1104049.8292563602,24.1588,2.7470584,-27.47537,36.68909788929009
1104067.91462818,-1.7396442,76.556305,-12.050685,77.51847009690556
1104086.0,-42.567444,33.26621,0.86862564,54.03131061671281
1104104.7438845402,-63.82604,-26.484707,21.770678,72.4511249570159
1104122.8292563602,78.197845,-78.40124,-30.91398,114.96665410292684
1104140.91462818,35.57297,-6.7910733,-20.148287,41.44283219353187
1104159.0,-32.13436,78.36774,-17.975525,86.58659979663611
1104176.7438845402,-8.360821,30.308575,-8.339285,32.52778382607538
1104194.8292563602,-55.218746,-11.1198435,22.222937,60.55261974665488
1104212.91462818,2.1440456,-56.202232,-6.5972476,56.628716118347675
1104231.0,78.36774,-78.40124,-30.88048,115.07328600190228
1104248.7438845402,14.041585,30.373182,-18.66229,38.31419269880874
1104266.8292563602,-46.214233,78.36774,-17.372513,92.62322717559056
1104284.91462818,-27.846272,35.43897,-5.2021823,45.36957305994092
1104303.0,-11.93104,-40.538258,19.349054,46.47672501210772
1104320.7438845402,-25.71419,-34.37652,1.4213874,42.95328901035843
1104338.8292563602,71.014336,-66.61378,-33.601215,103.0022973184847
1104356.91462818,75.3455,-27.267187,-24.417234,83.7654175262902
1104375.0,-19.853958,70.10503,-12.546017,73.93441297617066
1104393.7438845402,-69.54509,78.36774,-3.723365,104.84219409540667
1104411.8292563602,-23.330854,-12.053078,5.671192,26.865737591666154
1104429.91462818,16.508673,-78.40124,-0.21057591,80.12075299179608
1104448.0,-9.19116,-21.545744,-5.3218274,24.02120632971056
1104465.7438845402,69.49723,-38.638287,-39.06901,88.59554019445544
1104483.8292563602,70.52379,11.7228565,-15.714228,73.19813714924497
1104501.91462818,-77.192825,78.36774,-0.9739136,110.00537901343047
1104520.0,-67.33404,40.208035,0.98827106,78.43172636740096
1104537.7438845402,57.76959,-78.40124,-1.1509888,97.39304255193707
1104555.8292563602,-14.68767,-24.113335,-12.560374,30.902161249190986
1104573.91462818,64.850204,-25.637617,-31.871143,76.67206871088554
1104592.0,47.401115,38.413353,-9.609919,61.76408288910631
1104610.7438845402,-78.40124,78.36774,4.886318,110.96005231542712
1104628.8292563602,8.492431,-72.00739,0.68915755,72.50972718905088
1104646.91462818,30.373182,-63.524532,5.185432,70.60301024496599
1104665.0,28.150171,-13.096386,-43.79261,53.6818418480806
1104682.7438845402,61.715492,36.786175,-14.993962,73.3951191864291
1104700.8292563602,-78.40124,78.36774,-2.290013,110.87606263655546
1104718.91462818,-33.40021,-58.590355,12.835559,68.6524238604334
1104737.0,49.176655,-78.40124,-12.139223,93.34055156024284
1104755.7438845402,23.390676,3.3237493,-39.846706,46.32419467402172
1104773.8292563602,16.731213,64.32137,-14.381377,67.99997155546757
1104791.91462818,-69.95428,70.46397,1.5529974,99.30349520235279
1104810.0,-48.3846,-62.868874,25.159037,83.22584921738705
1104827.7438845402,78.0112,-78.40124,-32.703876,115.33449295159267
1104845.8292563602,7.2768335,25.410292,-23.950617,35.66885616322278
1104863.91462818,-4.70685,75.680504,-13.531896,77.02470598432254
1104882.0,-43.646645,25.008282,2.9265265,50.388573562889746
1104900.7438845402,-55.05603,-35.690224,21.579245,69.069691929971
1104918.8292563602,76.23566,-78.40124,-29.667274,113.30832906615593
1104936.91462818,43.450424,-9.088264,-29.234158,53.15234597157905
1104955.0,-30.136284,76.867386,-16.345955,84.16638811701306
1104972.7438845402,-29.064262,52.179752,-7.2026534,60.160918048070705
1104990.8292563602,-28.82497,-27.477764,14.431629,42.35774221478568
1105008.91462818,-29.849136,-25.003496,5.7740874,39.363508703764595
1105027.0,77.46083,-78.40124,-30.760834,114.42536225069186
1105044.7438845402,57.90359,-6.824574,-21.849644,62.26401439110967
1105062.8292563602,-39.191048,77.506294,-14.273697,88.01648867684139
1105080.91462818,-54.706665,72.30411,-6.999256,90.93785297040975
1105099.0,-4.29527,-45.22357,10.256004,46.57044390990724
1105116.7438845402,-17.628553,-45.769154,11.316062,50.33522223987264
1105134.8292563602,37.673946,-46.74546,-30.868515,67.50799549777597
1105152.91462818,78.36774,-37.84384,-24.127693,90.30949268020194
1105171.0,-2.0937946,67.89398,-13.464894,69.24795929483138
1105189.7438845402,-78.40124,78.36774,0.78008807,110.8551561436912
1105207.8292563602,1.61282,-57.570976,2.108152,57.63213314462757
1105225.91462818,16.65464,-63.560425,3.8645465,65.81974915905475
1105244.0,9.763065,-11.51946,-32.68234,36.00209361636383
1105261.7438845402,77.78626,-8.317748,-16.905895,80.03559497080114
1105279.8292563602,-41.11973,74.912384,-15.80755,86.90555856122701
1105297.91462818,-78.34381,69.63363,2.8044882,104.85447127498637
1105316.0,22.24926,-77.221535,3.9387267,80.4593599671357
1105333.7438845402,18.214817,-57.77198,-0.08614469,60.57547896939408
1105351.8292563602,19.818066,-9.753493,-40.150604,45.8252917857183
1105369.91462818,69.85616,11.174881,-12.907347,71.91217325243461
1105388.0,-33.474392,75.97483,-15.022677,84.37055492021427
1105405.7438845402,-78.40124,69.073685,3.5032175,104.54760124397465
1105423.8292563602,-11.607997,-67.980125,12.187081,70.03262048979886
1105441.91462818,43.14892,-77.75276,-10.265575,89.51370294465883
1105460.0,34.804848,-28.66704,-34.687595,56.88941793997131
1105478.7438845402,19.540487,45.20682,-22.143972,53.998543523379894
1105496.8292563602,8.205282,57.487225,-5.443866,58.3244662892521
1105514.91462818,-73.27084,53.11538,-4.0416217,90.58804718513316
1105533.0,-56.518097,-30.689047,21.837679,67.91904827348996
1105550.7438845402,69.08326,-78.40124,-15.319398,105.61219248196491
1105568.8292563602,49.035473,-51.351807,-32.842663,78.23123549727786
1105586.91462818,-18.229174,64.96027,-18.784328,70.03563694010899
1105605.0,-2.4981961,68.51135,-10.849445,69.4100606496247
1105622.7438845402,-21.483528,16.994432,6.7480006,28.211490680696194
1105640.8292563602,-70.78222,-4.4460235,26.302845,75.64211424983425
1105658.91462818,45.56815,-74.87888,-14.113372,88.78338940188803
1105677.0,77.728836,-74.66352,-32.127186,112.46585813029611
1105695.7438845402,-5.8386955,47.29822,-20.861372,52.02315659427544
1105713.8292563602,-40.330074,78.36774,-23.005419,91.08933441912195
1105731.91462818,-13.239961,27.623732,-0.10050214,30.63294366477844
1105750.0,-31.847214,-32.940773,20.150679,50.05386528091878
1105768.7438845402,-11.837716,-39.700737,-1.3735292,41.45077346567947
1105786.8292563602,73.6585,-70.07632,-33.840508,107.15150595624152
1105804.91462818,59.748524,-8.5546465,-23.108313,64.63019593521675
1105823.0,-17.063828,68.58314,-17.243296,72.74718259298294
1105840.7438845402,-67.14739,77.994446,-3.309392,102.97017852790525
1105858.8292563602,-15.180609,-15.71662,10.902089,24.41963509963247
1105876.91462818,9.911426,-76.64006,1.5171037,77.29318705936268
1105895.0,-2.68245,-22.864237,-6.4441013,23.905968149383337
1105912.7438845402,59.95431,-38.521034,-31.672531,77.98421999322181
1105930.8292563602,75.869545,-16.362705,-23.749613,81.16631130631612
1105948.91462818,-29.171942,69.9782,-13.5031805,77.00835382545809
1105967.0,-78.40124,78.36774,5.807588,111.00443767986461
1105985.7438845402,-27.360512,-6.8796105,6.5206747,28.955929549525333
1106003.8292563602,38.688538,-78.40124,1.3950654,87.43857051430633
1106021.91462818,-3.22564,-34.51052,-3.7281508,34.86086419564984
1106040.0,24.721134,-13.244746,-33.486355,43.67944292268959
1106057.7438845402,76.64724,-14.0870495,-17.659662,79.9068709510471
1106075.8292563602,6.6211767,56.221375,-15.508437,58.69578013764036
1106093.91462818,-78.40124,78.36774,-2.9313123,110.89116149651122
1106112.0,-40.677044,-23.749613,6.257455,47.516542059631504
1106129.7438845402,35.39111,-78.40124,12.696771,86.95109599307038
1106147.8292563602,47.128326,-68.20745,-26.546923,87.05213649206264
1106165.91462818,29.511736,7.360585,-32.902485,44.80730177606264
1106184.0,18.506752,50.844513,-15.549117,56.29777447889358
1106201.7438845402,-33.80461,65.70208,0.028714897,73.88853631060645
1106219.8292563602,-75.31439,14.912603,8.487645,77.24430844375354
1106237.91462818,0.18425392,-66.45106,12.861881,67.68460170148596
1106256.0,76.800385,-78.40124,-29.880243,113.74481303085814
1106274.7438845402,33.71368,-12.203832,-29.765385,46.59961243213132
1106292.8292563602,-12.06265,70.26535,-22.122435,74.64669494340808
1106310.91462818,-19.368198,73.608246,-11.550568,76.98517126100548
1106329.0,-35.304966,13.682649,2.9241338,37.97638827480385
1106346.7438845402,-46.262093,-38.647858,19.538095,63.36856738918624
1106364.8292563602,26.893894,-67.3484,-11.459637,73.41942384148084
1106382.91462818,78.36774,-74.328514,-34.206623,113.297500957523
1106401.0,19.841993,29.72949,-21.94536,41.9421755206111
1106418.7438845402,-36.367416,78.36774,-18.707756,88.39723838322207
1106436.8292563602,-40.40186,53.22067,0.28236315,66.819381437252
1106454.91462818,-27.329403,-32.11761,9.210303,43.16557449867102
1106473.0,-13.22321,-49.731808,6.489567,51.86733547716186
1106490.7438845402,55.924656,-65.548935,-31.296844,91.67181940330897
1106508.8292563602,73.14163,-30.995338,-32.761303,85.92852838870775
1106526.91462818,6.5469966,58.286457,-15.427078,60.647909854432285
1106545.0,-62.342434,78.36774,-6.295741,100.33801923743081
1106563.7438845402,-36.972824,3.9219763,7.2529044,37.881080170294474
1106581.8292563602,-5.6616206,-74.72095,13.127494,76.07631310362562
1106599.91462818,26.101841,-59.77245,-17.903738,67.63575768012379
1106618.0,60.310856,-28.688576,-31.988396,74.05194948827024
1106636.7438845402,16.956146,46.841175,-19.554846,53.5163392305346
1106654.8292563602,-61.150764,78.36774,-2.21344,99.42745057138343
1106672.91462818,-44.40998,10.56469,18.454107,49.238329211742645
1106691.0,-1.4094229,-78.40124,-1.5577831,78.42937966499092
1106708.7438845402,31.289667,-44.02233,-21.198772,58.02065782036406
1106726.8292563602,48.26735,-14.173195,-33.701717,60.55098893724704
1106744.91462818,28.817793,32.785233,-12.950418,45.53075908251324
1106763.0,-62.23715,78.36774,-15.541938,101.2744654373744
1106780.7438845402,-52.84259,31.461956,27.44187,67.3442664400685
1106798.8292563602,2.2110472,-78.40124,-5.441473,78.62094372155525
1106816.91462818,30.894836,-59.676735,-9.650599,67.8891571076407
1106835.0,42.938343,-16.274168,-39.021152,60.259440315065795
1106853.7438845402,51.727493,29.164764,-14.343091,61.09043501788988
1106871.8292563602,-58.39653,78.36774,-16.798214,99.16570668501433
1106889.91462818,-67.70734,37.499264,30.44497,83.17075741339738
1106908.0,27.764912,-78.40124,-12.519695,84.1093783997859
1106925.7438845402,29.810848,-45.13264,-12.718307,55.56435174457589
1106943.8292563602,25.563437,7.970777,-34.50334,43.6749707314418
1106961.91462818,53.69925,23.400248,-14.020048,60.23074632566251
1106980.0,-66.96553,78.36774,-17.932453,104.63009964386782
1106997.7438845402,-63.30917,31.617495,26.36506,75.51710657173992
1107015.8292563602,26.226273,-78.40124,-5.1423593,82.83124825920726
1107033.91462818,33.72086,-55.931835,-8.382357,65.84626393716103
1107052.0,40.5574,-10.315826,-37.855804,56.43031860009911
1107070.7438845402,36.604317,41.05273,-17.595053,57.74762812066135
1107088.8292563602,-66.9775,78.36774,-8.633613,103.45060392473003
1107106.91462818,-56.649708,6.0612364,23.20403,61.51711153348188
1107125.0,24.690025,-77.22393,-1.3448143,81.0860112759717
1107142.7438845402,60.547752,-71.51923,-26.479921,97.37667455922205
1107160.8292563602,38.087917,17.226545,-26.549314,49.52079712511209
1107178.91462818,-14.242589,72.03132,-25.108784,77.60034430544735
1107197.0,-43.9314,53.103416,3.1682103,68.9925956413736
1107214.7438845402,-39.36573,-28.477999,22.914488,53.71899929986638
1107232.8292563602,3.4697168,-60.162495,-7.9277043,60.781685027362194
1107250.91462818,74.21604,-74.28544,-31.323168,109.57868425397078
1107269.0,49.28912,2.8906329,-22.730234,54.354729754012375
1107286.7438845402,-33.175278,74.87888,-22.878593,85.03455625856662
1107304.8292563602,-50.51668,68.49939,1.9861137,85.13545698605152
1107322.91462818,-12.3833,-29.722311,7.3462276,33.026185823096846
1107341.0,-9.186374,-58.994755,8.549861,60.314763598121
1107359.7438845402,19.014048,-38.74836,-17.037506,46.403082168493285
1107377.8292563602,74.94349,-42.57462,-30.176964,91.32236373299695
1107395.91462818,45.900764,28.205208,-13.943476,55.64920859338016
1107414.0,-71.91407,78.36774,-19.112158,108.06669570265144
1107431.7438845402,-59.760487,55.97969,21.193987,84.58266124880109
1107449.8292563602,15.891303,-76.61134,-3.9626558,78.3424123232281
1107467.91462818,13.539074,-60.294106,-1.2467052,61.808090222659516
1107486.0,29.174335,-17.46823,-29.557201,45.054511571867316
1107503.7438845402,76.02747,-8.597719,-25.113571,80.5281839791256
1107521.8292563602,-11.780287,71.74417,-14.642204,74.16464945490463
1107539.91462818,-78.40124,78.32945,8.025814,111.11557434132578
1107558.0,0.31825677,-59.956707,5.410365,60.20116320378474
1107576.7438845402,31.378204,-74.627625,0.89494765,80.96094756549283
1107594.8292563602,20.114786,-24.654133,-32.629696,45.57551920559875
1107612.91462818,67.714516,16.336384,-27.827127,75.00988012511313
1107631.0,-25.726154,78.36774,-25.374397,86.29714766695899
1107649.7438845402,-77.63312,65.422104,22.2014,103.9223516606568
1107667.8292563602,2.005257,-77.58526,-2.0746512,77.63889361979156
1107685.91462818,50.99048,-67.29575,-6.257455,84.6634676928008
1107704.0,32.27794,7.702771,-40.12907,52.07245289773607
1107721.7438845402,14.180373,57.35322,-14.199516,60.76266186912638
1107739.8292563602,-66.5037,68.21463,-2.8236315,95.3097621158226
1107757.91462818,-60.33239,-16.219131,23.539038,66.76184391905832
1107776.0,45.170925,-78.40124,-16.872395,92.04262388659534
1107793.7438845402,60.68415,-45.747616,-28.114277,81.02976614885844
1107811.8292563602,10.387614,51.160374,-21.686926,56.52971919054921
1107829.91462818,-10.30147,64.6157,-17.410799,67.70852894923432
1107848.0,-51.65571,27.188221,10.289505,59.27381926191332
1107865.7438845402,-39.466232,-41.07427,20.114786,60.40930176832472
1107883.8292563602,49.028294,-78.374916,-20.775229,94.75236783616509
1107901.91462818,68.563995,-50.607613,-24.66849,88.71688848690476
1107920.0,8.44218,45.127853,-20.088463,50.113270350720256
1107938.7438845402,-44.07976,78.36774,-19.351448,91.97285715939188
1107956.8292563602,-37.76248,38.74836,3.9147975,54.2472666399516
1107974.91462818,-22.325832,-40.844547,11.323241,47.90548591624464
1107993.0,-4.967677,-51.871067,2.9193478,52.19011398792095
1108010.7438845402,51.72271,-53.802147,-26.214308,79.10183117648145
1108028.8292563602,73.88343,-30.600508,-28.853685,85.01580709786968
1108046.91462818,31.34949,40.92112,-13.878867,53.3849373374006
1108065.0,-74.06529,78.36774,-17.116472,109.17940954785607
1108082.7438845402,-55.108673,50.820583,21.57446,78.00740234472892
1108100.8292563602,16.764713,-76.94157,-5.6185484,78.94700046335143
1108118.91462818,9.365842,-57.094788,-0.2392908,57.85837081374546
1108137.0,27.271973,-12.73745,-30.959444,43.17974428600018
1108154.7438845402,75.95569,-12.591482,-24.838387,80.8996769529656
1108172.8292563602,-11.904717,66.465416,-16.164095,69.43091370615953
1108190.91462818,-78.40124,78.36774,4.245019,110.9336616746944
1108209.0,1.6056414,-47.013466,9.557275,48.001933034662
1108227.7438845402,34.93167,-78.40124,-6.45128,86.0731956892789
1108245.8292563602,-9.830067,-2.2708697,-11.797037,15.522794477742597
1108263.91462818,72.00739,-25.355253,-32.825912,83.09929944312319
1108282.0,43.534176,37.401154,-7.7937016,57.92074399695272
1108299.7438845402,-78.40124,78.36774,-15.166251,111.88508513488382
1108317.8292563602,-53.074703,8.612076,22.325832,58.219710803646294
1108335.91462818,39.377697,-78.40124,-3.7975452,87.81673419176695
1108354.0,21.763498,-36.932144,-10.806373,44.20871863159878
1108371.7438845402,51.095768,1.2658484,-36.482277,62.795990435587015
1108389.8292563602,28.178886,52.483654,-10.526402,60.492881337049205
1108407.91462818,-77.28375,77.65226,-1.797074,109.57135105551805
1108426.0,-60.724827,-15.175823,19.887459,65.67588022542171
1108444.7438845402,41.280056,-78.40124,-17.83913,90.3826975480243
1108462.8292563602,50.937836,-42.25397,-23.297354,70.16286639330745
1108480.91462818,11.150951,48.52339,-26.1162,56.22205072510697
1108499.0,12.088972,59.70545,-12.668056,62.22028324058337
1108517.7438845402,-63.005272,45.508327,11.34717,78.54572167306003
1108535.8292563602,-59.990208,-22.72784,16.03727,66.12543985488311
1108553.91462818,55.01535,-78.40124,-20.244003,97.89414092081358
1108572.0,71.20098,-49.3298,-26.714426,90.64584534058842
1108589.7438845402,10.780051,38.322422,-19.490236,44.324787950360026
1108607.8292563602,-26.896286,76.30027,-17.638126,82.80244496063249
1108625.91462818,-36.446384,48.32717,-6.252669,60.85187044379094
1108644.0,-29.67206,-17.530445,14.194731,37.272483613303606
1108661.7438845402,-23.974546,-50.62915,9.215089,56.771538211559296
1108679.8292563602,35.747654,-56.171124,-16.599604,68.61950736404269
1108697.91462818,78.36774,-52.81627,-31.37581,99.57661624385817
1108716.0,52.40708,12.017184,-20.150679,57.419200704792964
1108734.7438845402,-36.793354,72.77791,-16.764713,83.25521415809213
1108752.8292563602,-71.07894,78.36774,-2.3546216,105.82656862579637
1108770.91462818,-27.81277,4.8552103,16.791037,32.84908165634916
1108789.0,15.836266,-78.40124,-4.113409,80.09033579628466
1108806.7438845402,4.9533195,-42.584194,-3.275891,42.996283729441046
1108824.8292563602,36.08984,-21.629496,-30.456934,51.94166417357045
1108842.91462818,77.98727,-18.200459,-27.097292,84.54309092762604
1108861.0,13.673077,57.556618,-13.6443615,60.7114973541959
1108878.7438845402,-78.40124,78.36774,-8.339285,111.16564568497061
1108896.8292563602,-32.053005,-0.9451987,23.000633,39.46286417016884
1108914.91462818,37.30544,-78.40124,-13.132279,87.811770502963
1108933.0,2.0267932,-18.437357,-2.5723763,18.725948404548614
1108950.7438845402,45.261856,-12.012399,-37.88213,60.23279099989338
1108968.8292563602,70.621895,15.046606,-11.612783,73.13486948450343
1108986.91462818,-73.3881,78.36774,-23.170528,109.8371033035576
1109005.0,-70.26296,47.996952,21.684534,87.81121775746571
1109023.7438845402,18.90876,-78.40124,-11.280169,81.43425477613067
1109041.8292563602,35.92712,-51.65571,-5.2428617,63.139194846813076
1109059.91462818,30.145857,-6.9418263,-42.366436,52.45833152117895
1109078.0,49.119225,35.149426,-11.289741,61.4462257960339
1109095.7438845402,-40.834976,78.06623,-15.644834,89.47956393624766
1109113.8292563602,-78.14999,45.359966,28.911116,94.87254650786345
1109131.91462818,-2.266084,-75.041595,-9.607526,75.6880484137341
1109150.0,62.71573,-70.84444,-16.10188,95.97639297181834
1109167.7438845402,28.671825,-1.6271775,-39.83474,49.10730868531415
1109185.8292563602,10.6771555,57.89402,-13.294997,60.35292989210705
1109203.91462818,-15.795587,55.87919,-10.971483,59.09617485886847
1109222.0,-70.466354,34.017582,19.33709,80.60164998837269
1109239.7438845402,-32.486122,-46.783745,5.9176617,57.26330097732366
1109257.8292563602,59.91124,-78.40124,-21.835287,101.05884854997889
1109275.91462818,74.09161,-49.38723,-28.985296,93.64193795342243
1109294.0,9.516596,51.816032,-18.655111,55.88810193658898
1109312.7438845402,-36.917786,78.36774,-18.58093,88.59840041171338
1109330.8292563602,-33.72804,36.451168,3.4697168,49.78260002729896
1109348.91462818,-31.631851,-37.544727,13.340463,50.87384864785737
1109367.0,-8.183745,-55.111065,4.168446,55.87109368639714
1109384.7438845402,69.44937,-70.892296,-32.481335,104.42207500778149
1109402.8292563602,69.74131,-15.51083,-26.86518,76.3293787753929
1109420.91462818,-5.386436,66.731026,-18.277033,69.3980796497847
1109439.0,-74.69223,78.36774,-5.829124,108.41775953084381
1109457.7438845402,-25.367218,-5.068179,17.291153,31.11536854200789
1109475.8292563602,5.7453723,-78.40124,-3.4577522,78.68748176603323
1109493.91462818,9.0475855,-28.633537,-7.630984,30.98338524626441
1109512.0,73.82121,-40.643543,-34.812027,91.17755127938936
1109529.7438845402,61.375698,22.45505,-14.101407,66.85847182571071
1109547.8292563602,-71.18662,78.36774,-19.136086,107.58823043033749
1109565.91462818,-67.77434,59.38719,20.363647,92.38440137638122
1109584.0,23.539038,-78.25527,-4.582419,81.84724892523819
1109602.7438845402,20.059748,-65.101456,1.8640754,68.14739789779449
1109620.8292563602,16.48953,-1.586498,-32.555515,36.52784051158964
1109638.91462818,78.01598,-13.024599,-24.926924,82.9306026420463
1109657.0,-12.282797,69.162224,-16.592424,72.1774817028494
1109674.7438845402,-78.40124,78.205025,4.551311,110.8309288989628
1109692.8292563602,-12.0650425,-45.180496,12.22776,48.33591401794759
1109710.91462818,42.320972,-78.40124,-7.6118407,89.4190092955886
1109729.0,1.9669704,-10.552725,-14.943711,18.39955097092378
1109746.7438845402,60.392216,-12.038721,-33.38825,70.04945249442709
1109764.8292563602,46.463097,27.784056,-3.5056105,54.24999959097009
1109782.91462818,-77.55176,78.36774,-9.959284,110.70214762866101
1109801.0,-65.699684,28.016169,24.297588,75.44353508256464
1109819.7438845402,25.967838,-78.40124,-15.786015,84.08496484813483
1109837.8292563602,43.163277,-60.382645,-8.279462,74.68387904751732
1109855.91462818,19.37059,6.2407045,-41.73232,46.430083805511494
1109874.0,29.818027,49.85624,-12.802058,59.48657067057819
1109891.7438845402,-27.461014,72.95259,-13.015027,79.02897320240865
1109909.8292563602,-73.39528,43.072346,20.684298,87.57816109039354
1109927.91462818,-22.99106,-59.281906,2.8020954,63.645777216930405
1109946.0,68.04713,-78.40124,-22.514872,106.2265776345585
1109963.7438845402,36.98718,-20.799156,-30.18175,52.07297195020883
1109981.8292563602,-8.186138,63.14406,-21.852037,67.31787793512221
1109999.91462818,-3.3859649,62.91434,-11.564925,64.05799268003375
1110018.0,-39.50213,29.595488,9.0475855,50.18137092462555
1110035.7438845402,-61.131622,-12.323477,20.925982,65.77872008776652
1110053.8292563602,16.89393,-70.50465,-14.285662,73.89445636342177
1110071.91462818,78.36774,-76.039444,-27.70509,112.65465693190333
1110090.0,39.84192,4.680528,-24.058298,46.77699898777163
1110108.7438845402,-16.82693,69.63841,-16.898718,73.60856193810963
1110126.8292563602,-46.707172,74.84777,-13.259104,89.21632378154403
1110144.91462818,-27.870201,12.373728,5.029893,30.905615541351608
1110163.0,-16.121021,-50.229534,10.863803,53.86014871463322
1110180.7438845402,-10.693906,-43.251812,2.2493336,44.61096690797307
1110198.8292563602,43.68493,-43.2566,-23.668255,65.87634512789796
1110216.91462818,78.36774,-45.41979,-29.916138,95.39096031169171
1110235.0,58.35585,13.866902,-19.36102,63.02813098720684
1110252.7438845402,-47.425045,76.6616,-21.796999,92.74289715777712
1110270.8292563602,-76.62092,78.36774,2.526911,109.62961886988352
1110288.91462818,-22.321047,-3.649185,15.269147,27.289055323481666
1110307.0,22.914488,-78.40124,-9.17441,82.19487814145019
1110324.7438845402,6.4441013,-53.754288,2.3570144,54.19045521891667
1110342.8292563602,13.007849,-8.992549,-25.71419,30.187574272874294
1110360.91462818,76.711845,-27.374868,-31.579208,87.35752365554275
1110379.0,53.514996,20.82548,-10.801587,58.431410181759134
1110397.7438845402,-75.06553,78.36774,-22.555552,110.83812247107582
1110415.8292563602,-74.077255,67.049286,16.872395,101.32977930737263
1110433.91462818,11.507495,-73.13684,0.90691215,74.04216566260365
1110452.0,33.44089,-76.29309,-2.421623,83.33542442259672
1110470.7438845402,13.038957,-18.473251,-19.990355,30.180949209441295
1110488.8292563602,44.058224,-4.761887,-32.572266,54.99777433869212
1110506.91462818,59.552303,14.579989,-9.083479,61.98033932294475
1110525.0,-42.09843,76.78124,-18.707756,89.5411456200893
1110542.7438845402,-78.40124,72.83773,19.303589,108.74151871926114
1110560.8292563602,-29.652918,-41.938107,4.2737336,51.53993755857628
1110578.91462818,42.483692,-78.40124,-17.480194,90.8690029755257
1110597.0,46.554028,-49.999813,-20.650797,71.37026159259165
1110614.7438845402,10.239254,21.741962,-33.67061,41.36744144684392
1110632.8292563602,22.49573,52.897625,-14.108586,59.18841776727032
1110650.91462818,-12.06265,60.827724,-15.43665,63.904692278933446
1110669.0,-71.1268,51.811245,18.054491,89.82979145004794
1110687.7438845402,-49.193405,-26.582815,12.167937,57.224958188313416
1110705.8292563602,53.91222,-78.40124,-21.021698,97.443284456494
1110723.91462818,67.34122,-62.993305,-24.649345,95.44939284689269
1110742.0,18.985332,20.023855,-29.061869,40.07480293132345
1110759.7438845402,-8.638398,61.52645,-14.48188,63.7953824186618
1110777.8292563602,-20.763264,62.981342,-10.997806,67.22138282472547
1110795.91462818,-33.45764,26.647425,3.0078855,42.87827315414341
1110814.0,-38.24585,-20.84223,16.231096,46.48216938737494
1110831.7438845402,-18.442142,-38.38703,6.1928463,43.03519512055787
1110849.8292563602,51.045517,-70.64104,-21.909466,89.86559986159357
1110867.91462818,78.36774,-56.40563,-27.114042,100.29092203176847
1110886.0,41.974,22.703913,-21.808964,52.46823088560224
1110903.7438845402,-49.210155,78.36774,-19.545273,94.57885453142342
1110921.8292563602,-66.22613,75.79058,1.0026284,100.65345287282393
1110939.91462818,-12.766165,-10.705871,9.016478,18.944326807789977
1110958.0,17.812807,-78.40124,-0.17707519,80.39951419243629
1110976.7438845402,-11.603211,-24.460306,5.15911,27.560070593455613
1110994.8292563602,47.250362,-36.604317,-31.167627,67.40840974966449
1111012.91462818,78.37013,-25.620867,-24.472271,86.00696570595913
1111031.0,11.031306,57.709763,-19.064299,61.77017042184039
1111048.7438845402,-78.40124,78.36774,-6.8963614,111.06672276971446
1111066.8292563602,-38.834507,18.741257,17.965954,46.713265257346485
1111084.91462818,29.459091,-78.40124,-10.401972,84.39664387623874
1111103.0,17.977919,-49.432693,2.5460541,52.66193217384771
1111120.7438845402,16.458422,-2.8714898,-25.032211,30.095459723189293
1111138.8292563602,62.682228,-4.792995,-24.154015,67.34575672404488
1111156.91462818,38.497105,26.439241,-12.502945,48.346501338877985
1111175.0,-75.13253,78.36774,-10.423508,109.06442708754567
1111193.7438845402,-77.15693,62.543438,19.578773,101.23340276840581
1111211.8292563602,-12.093758,-61.57431,-2.4670882,62.799213042244745
1111229.91462818,42.634445,-78.40124,-13.902796,90.32019746774938
1111248.0,39.080975,-41.22502,-18.181316,59.643818895530835
1111266.7438845402,11.1294155,6.4225655,-35.57776,37.82710990270114
1111284.8292563602,20.973839,42.182182,-11.691749,48.537978896509955
1111302.91462818,19.660133,40.70576,-13.706577,47.237167355930836
1111321.0,-52.565014,65.43646,-1.797074,83.95379961093644
1111338.7438845402,-66.391235,31.56485,23.488787,77.17421172308204
1111356.8292563602,-24.110943,-59.36805,0.7872668,64.08215603556212
1111374.91462818,59.107224,-78.40124,-20.05257,100.21239407442913
1111393.0,63.364204,-55.036884,-27.200186,88.22658934480958
1111410.7438845402,14.271304,26.357883,-27.810377,40.88795889970829
1111428.8292563602,-1.4764243,61.55995,-11.768322,62.69211015280802
1111446.91462818,-24.95803,61.928463,-14.618276,68.35006791683125
1111465.0,-41.892643,32.012325,6.089951,53.07419328273841
1111483.7438845402,-39.061832,-21.588818,14.843209,47.03429212022893
1111501.8292563602,-12.191867,-44.82874,1.4166015,46.47864359835699
1111519.91462818,57.054108,-69.54987,-20.634047,92.29365932874681
1111538.0,76.922424,-52.11754,-27.4993,96.89947776008587
1111555.7438845402,47.566227,4.477131,-24.127693,53.52323068078887
1111573.8292563602,-22.18465,65.87915,-16.214346,71.38015211914804
1111591.91462818,-58.236206,78.36774,-9.023657,98.05296909138286
1111610.0,-42.052967,51.727493,7.63577,67.10060021386573
1111627.7438845402,-3.01985,-45.565758,7.1906886,46.22838736836095
1111645.8292563602,7.7625937,-78.40124,-2.2541194,78.81683417112322
1111663.91462818,-6.893968,-28.226744,0.09810923,29.056591284036934
1111682.0,30.246359,-14.479486,-27.410763,43.31105720047995
1111699.7438845402,77.67858,-35.54904,-27.997025,89.89732723829238
1111717.8292563602,63.948074,13.474465,-18.02817,67.79330563480882
1111735.91462818,-70.63386,78.36774,-22.347368,107.84270818063975
1111754.0,-78.20981,75.92937,13.199281,109.80102289027168
1111772.7438845402,1.6726427,-53.7495,10.59819,54.80992715857195
1111790.8292563602,33.9434,-78.40124,-13.574967,86.50542506773023
1111808.91462818,9.01887,-20.303825,-5.927233,22.993856065127787
1111827.0,25.671118,3.0294216,-35.64476,44.03104143735497
1111844.7438845402,73.45032,-1.5290682,-15.931982,75.17390244034812
1111862.8292563602,6.11388,57.669086,-15.355291,59.99073237112943
1111880.91462818,-78.40124,78.36774,3.3979294,110.90447705323976
1111899.0,-61.73703,20.533545,18.066456,67.52395260859556
1111916.7438845402,27.214544,-78.40124,-17.595053,84.83496760616076
1111934.8292563602,52.098396,-71.28952,-6.4106007,88.52984993174933
1111952.91462818,21.079128,-16.913074,-36.905823,45.74299378787082
1111971.0,20.382792,41.61028,-21.184416,50.94755237157837
1111988.7438845402,12.328262,49.748558,-15.637654,53.5858310530286
1112006.8292563602,-50.751186,58.853573,-2.1584032,77.74371125465194
1112024.91462818,-69.37519,23.184887,25.22125,77.37291143741051
1112043.0,-2.28762,-64.75688,-5.161503,65.00252168814536
1112061.7438845402,68.32949,-78.40124,-21.14613,106.1264926923273
1112079.8292563602,53.632248,-34.876637,-30.303787,70.7892459382401
1112097.91462818,-3.905226,51.12448,-20.428257,55.19308769619185
1112116.0,-14.254554,68.176346,-13.232781,70.89649467106673
1112133.7438845402,-23.00781,39.590664,-3.4792883,45.92260275759109
1112151.8292563602,-41.74907,8.073672,10.602976,43.82456075632773
1112169.91462818,-42.23722,-24.584738,14.469915,50.96832875388665
1112188.0,26.740747,-66.91767,-13.082028,73.24057321553192
1112205.7438845402,78.36774,-72.01218,-26.310024,109.6333621847865
1112223.8292563602,52.01225,-8.415857,-24.38134,58.05644270279182
1112241.91462818,3.2615337,57.702587,-19.234196,60.91125055632351
1112260.0,-48.487495,78.36774,-16.530209,93.62578519652749
1112278.7438845402,-44.00558,51.856712,4.1469097,68.13814284706693
1112296.8292563602,-16.82693,-27.48255,11.328027,34.15787352046566
1112314.91462818,-3.8573678,-76.183014,2.0028641,76.3068959732457
1112333.0,4.840853,-29.691204,-3.6061125,30.29860558012334
1112351.7438845402,57.054108,-38.28892,-29.751026,74.87547116709678
1112369.8292563602,76.7621,-27.843878,-27.504086,86.16365988735785
1112387.91462818,45.771545,26.735962,-20.588581,56.86594467118286
1112406.0,-74.47687,78.36774,-17.580696,109.53258743200088
1112423.7438845402,-74.586945,74.45294,11.615176,106.02530336003572
1112441.8292563602,2.7398798,-46.810066,13.826223,48.886129553161936
1112459.91462818,36.293236,-78.40124,-12.321084,87.26833631864625
1112478.0,-9.255769,-18.016205,-4.070337,20.659635661767005
1112495.7438845402,18.913546,-3.5582542,-30.830229,36.344001092867785
1112513.8292563602,77.81737,-23.704147,-20.29904,83.84199832802238
1112531.91462818,31.007303,40.14582,-18.126278,53.8674452423678
1112550.0,-78.40124,78.36774,-17.549587,112.23299474804978
1112568.7438845402,-69.72934,58.559246,16.862823,92.6051885611894
1112586.8292563602,12.90256,-73.4551,-4.563276,74.71914920832394
1112604.91462818,39.2748,-78.40124,-3.5845764,87.7616860397807
1112623.0,13.57736,-25.312181,-20.904446,35.52530188630741
1112640.7438845402,21.430885,2.2852273,-38.712467,44.30756365364698
1112658.8292563602,54.000755,23.61561,-9.183981,59.65001327116772
1112676.91462818,2.0507221,58.0352,-16.436886,60.3528054157255
1112695.0,-77.9777,77.6403,6.109094,110.20825246269371
1112712.7438845402,-62.8258,12.866667,22.081757,67.82504152255225
1112730.8292563602,17.446693,-77.34836,-13.838187,80.4900696407502
1112748.91462818,52.81148,-73.76139,-14.376592,91.85032102315682
1112767.0,37.606945,-29.734276,-29.98553,56.54680796347484
1112784.7438845402,3.7018287,32.380833,-21.777857,39.19817517449609
1112802.8292563602,12.486195,45.6519,-10.545546,48.489272830453345
1112820.91462818,-4.63267,44.38366,-15.948732,47.38916499298467
1112839.0,-48.774647,44.9771,6.4417086,66.65884280477664
1112857.7438845402,-59.145508,17.327047,21.91186,65.41060527909731
1112875.8292563602,-25.656761,-46.63778,0.13878867,53.229420160607056
1112893.91462818,49.152725,-78.40124,-17.080578,94.09830473115501
1112912.0,76.53716,-71.96192,-24.295197,107.82722934500734
1112929.7438845402,50.921085,-25.288252,-26.226273,62.612059399633694
1112947.8292563602,8.624041,38.078346,-17.209795,42.66745318398348
1112965.91462818,-22.665625,69.93992,-13.907582,74.82475394769935
1112984.0,-40.172142,73.46228,-11.397421,84.5009395280183
1113001.7438845402,-32.988632,38.552143,-6.0253425,51.096206545752295
1113019.8292563602,-19.499807,-7.6573057,6.5158887,21.939316515591116
1113037.91462818,-10.71305,-46.12809,11.019341,48.62094202527221
1113056.0,-29.140835,-34.91971,8.423037,46.25496690394118
1113073.7438845402,6.307706,-35.28343,-7.0686507,36.533182317804545
1113091.8292563602,60.688934,-52.77559,-29.839563,85.78350150195214
1113109.91462818,78.36774,-53.22306,-30.119534,99.405146329797
1113128.0,68.30317,-14.079871,-27.494514,74.9634184087261
1113146.7438845402,18.272245,41.363808,-21.490707,50.06685567279753
1113164.8292563602,-53.306812,78.36774,-15.788407,96.08534057757505
1113182.91462818,-77.64508,78.36774,-1.4883888,110.32894643806748
1113201.0,-55.39582,57.726517,19.047548,82.24266972342272
1113218.7438845402,2.3737648,-49.004364,13.33807,50.84256643497765
1113236.8292563602,32.08411,-78.40124,-9.609919,85.25546956774247
1113254.91462818,19.573988,-65.888725,-4.027264,68.8526248132594
1113273.0,-11.234703,6.6283555,-16.805393,21.2738074170337
1113291.7438845402,31.39974,-9.172017,-31.72039,45.56591609600304
1113309.8292563602,77.831726,-23.182493,-15.087286,82.60043433711425
1113327.91462818,34.934067,33.098705,-14.4077,50.234401849006964
1113346.0,-74.69702,78.36774,-19.136086,109.94242701062859
1113363.7438845402,-78.40124,75.481895,10.136358,109.30240921330503
1113381.8292563602,-25.034605,-36.513386,12.242118,45.932866858241546
1113399.91462818,31.148485,-78.40124,-12.112901,85.2273719057946
1113418.0,47.027824,-74.40748,-5.597012,88.20099689603016
1113436.7438845402,11.016949,-9.798959,-25.570616,29.51693014816646
1113454.8292563602,-0.5431901,26.398561,-33.81897,42.90573167091268
1113472.91462818,48.190777,24.910173,-11.268204,55.40613800057963
1113491.0,44.77849,21.36867,-9.662563,50.54798065183187
1113508.7438845402,-61.485775,76.501274,-9.124159,98.5707650798703
1113526.8292563602,-78.40124,69.17658,23.299746,107.12157494033832
1113544.91462818,-44.113262,-23.1466,9.495059,50.71391447378248
1113563.0,47.17379,-78.40124,-24.103764,94.62088741641243
1113580.7438845402,58.4061,-68.91336,-11.361527,91.04618607866739
1113598.8292563602,30.196108,-17.389263,-28.786684,45.198059490941525
1113616.91462818,-7.142831,43.87397,-25.168608,51.08232675704117
1113635.0,6.1354165,50.04528,-9.131337,51.24016687438129
1113653.7438845402,14.498631,35.776367,-17.24569,42.27969441905831
1113671.8292563602,-30.904408,39.29155,-7.808059,50.595198592163314
1113689.91462818,-60.126602,42.27551,15.508437,75.11949568527116
1113708.0,-52.464508,-2.6609137,14.673312,54.54274604794166
1113725.7438845402,-7.037543,-64.15626,-5.757337,64.79737369674807
1113743.8292563602,61.212982,-78.40124,-17.336618,100.96703384049592
1113761.91462818,75.96526,-68.98036,-24.295197,105.44793686870318
1113780.0,50.899548,-24.757027,-26.903465,62.66953647099409
1113797.7438845402,11.356742,34.546413,-18.001848,40.577047347438146
1113815.8292563602,-12.900167,63.955254,-10.667584,66.10965263279985
1113833.91462818,-35.08721,75.1421,-11.244275,83.68919415473974
1113852.0,-34.967567,43.359493,-4.6781354,55.898670162511664
1113869.7438845402,-25.575401,-0.40440148,6.458459,26.38136405727551
1113887.8292563602,-14.85996,-43.93858,9.557275,47.35777369179875
1113905.91462818,-23.893187,-41.823246,5.6807637,48.50092130267963
1113924.0,11.598426,-37.62848,-7.410836,40.06677530082465
1113942.7438845402,62.722908,-52.423832,-28.803434,86.6721360053682
1113960.8292563602,77.302895,-46.03716,-31.232237,95.23975170206396
1113978.91462818,64.92917,-2.629806,-26.077913,70.0197867957487
1113997.0,-4.065551,62.24672,-20.394756,65.62872029829272
1114014.7438845402,-74.49362,78.36774,-10.667584,108.64897349634306
1114032.8292563602,-70.66019,73.833176,11.227525,102.81175830958588
1114050.91462818,-6.475209,-33.055634,14.938925,36.84799520857629
1114069.0,28.999653,-78.40124,-9.172017,84.09435298226806
1114086.7438845402,0.79205257,-45.187675,4.5728474,45.42537014183765
1114104.8292563602,-1.8066456,8.45893,-20.99059,22.702914650260205
1114122.91462818,75.6159,-40.36118,-36.305202,93.08521298285352
1114141.0,68.34145,-3.1083877,-16.7695,70.43743317616004
1114158.7438845402,-61.954784,78.36774,-20.253574,101.93186544436303
1114176.8292563602,-78.40124,78.18588,7.678842,110.9898683636167
1114194.91462818,-17.96356,-26.266953,13.874081,34.71501737537186
1114213.0,24.548843,-78.40124,-11.440494,82.94748356122858
1114231.7438845402,20.21768,-53.79975,2.2230117,57.51616699383954
1114249.8292563602,9.612311,-1.0600582,-26.647425,28.347936525940174
1114267.91462818,56.384094,-9.164838,-29.03794,64.08090410731327
1114286.0,63.972004,10.641262,-9.652991,65.56549388187922
1114304.7438845402,-37.417904,76.13037,-18.329676,86.7865761414465
1114322.8292563602,-78.40124,78.12845,10.885339,111.21735358335506
1114340.91462818,-55.9773,4.924605,15.970268,58.41882667161203
1114359.0,12.62259,-78.40124,-14.352663,80.69747918638642
1114376.7438845402,42.734947,-70.940155,-9.418487,83.35159976800688
1114394.8292563602,31.07191,-20.500044,-32.91206,49.68821880983093
1114412.91462818,26.106627,23.25428,-30.669903,46.507638745317294
1114431.0,16.470387,45.340824,-13.651541,50.13410556301395
1114448.7438845402,-28.870436,75.788185,-8.990156,81.59763455718956
1114466.8292563602,-55.59683,62.005035,22.122435,86.16863699588934
1114484.91462818,-28.729254,-55.27857,17.307903,64.65797586453527
1114503.0,54.194584,-78.40124,-18.540253,97.09556297676359
1114521.7438845402,53.97683,-37.549515,-25.23561,70.42939915728535
1114539.8292563602,28.00899,49.274765,-39.073795,68.84233757163791
1114557.91462818,2.6609137,78.36774,-17.800844,80.40804177157148
1114576.0,-61.634132,71.660416,19.67449,96.54567315756091
1114593.7438845402,-5.7023,-78.40124,12.615412,79.61419018464827
1114611.8292563602,24.754635,75.00331,-28.724468,84.04393807302434
1114629.91462818,-49.892136,-78.40124,8.7053995,93.33682900460406
1114648.0,-17.257652,78.36774,-28.140598,85.03659495216343
1114665.7438845402,49.217335,51.76339,-62.359184,94.81804911481875
1114683.8292563602,73.330666,-78.40124,4.5345607,107.44628076524167
1114701.91462818,33.206387,-53.744717,10.457008,64.0352071857031
1114720.0,73.77575,-54.96031,-13.436179,92.9732642724705
1114737.7438845402,75.53214,-6.7264647,-34.639736,83.36822422535843
1114755.8292563602,-33.232708,78.36774,-17.786486,86.9613399042877
1114773.91462818,13.95544,-67.61162,0.3804724,69.03788976978629
1114792.0,36.240593,62.58651,-33.740005,79.80501082245259
1114810.7438845402,2.7757733,-63.938503,-3.9219763,64.11878805304858
1114828.8292563602,-16.35074,60.605183,-39.482983,74.15686651679248
1114846.91462818,41.07666,-47.334114,12.402443,63.88764307194972
1114865.0,19.782171,-39.667236,-2.1751535,44.379670955309024
1114882.7438845402,-50.44968,-68.027985,-19.41127,86.88943755299331
1114900.8292563602,-51.55042,-33.517464,-31.244202,68.97148942704152
1114918.91462818,-42.620087,-33.38107,-23.96976,59.20571800671004
1114937.0,-38.363102,-53.596355,-15.15668,67.63151493919702
1114954.7438845402,-6.1282377,-13.232781,-1.7300725,14.685194624414024
1114972.8292563602,24.055904,-35.845764,0.28236315,43.17041860984661
1114990.91462818,3.7305436,21.72282,-13.467287,25.829550585410306
1115009.0,-7.549625,11.127023,-8.222033,15.761005841514143
1115027.7438845402,14.216267,-18.578539,-7.939669,24.704305345817172
1115045.8292563602,2.4575167,20.066927,-13.924333,24.54807522085992
1115063.91462818,2.6633067,-12.3833,-7.604662,14.773970542901083
1115082.0,10.045428,3.022243,-9.090658,13.881089270197673
1115099.7438845402,4.527382,-7.779344,-8.925548,12.675992582222664
1115117.8292563602,-10.646049,-5.5611186,-10.806373,16.156797232397142
1115135.91462818,1.8784329,0.99305683,-9.839638,10.066436708113555
1115154.0,1.7563945,-1.6822144,-8.49961,8.84070908238121
1115171.7438845402,-0.53840435,-1.8664683,-10.239254,10.421895491489051
1115189.8292563602,1.8473251,3.9698346,-9.983212,10.901225555569024
1115207.91462818,0.7513731,1.2897775,-10.009535,10.120221264929679
1115226.0,0.94280577,-1.5194967,-10.169859,10.325879382461196
1115244.7438845402,0.70112205,-2.5580187,-9.571632,9.932329582830498
1115262.8292563602,1.3208853,-0.3828653,-10.052607,10.146242226073118
1115280.91462818,-0.16271774,-0.9547703,-10.011928,10.058666197158388
1115299.0,0.81119585,-0.13400285,-9.803744,9.838159984895618
1115317.7438845402,0.57429796,-0.32064968,-9.834852,9.856822420336497
1115335.8292563602,0.75376606,-0.94280577,-9.514202,9.590468481255606
1115353.91462818,1.0265576,-0.7705164,-9.82528,9.908765972974976
1115372.0,0.6580497,-0.31586388,-9.758279,9.78554078424896
1115389.7438845402,0.677193,-0.15314612,-9.86596,9.890359488659653
1115407.8292563602,1.0815945,-0.45225963,-9.935354,10.004281310552697
1115425.91462818,1.222776,-0.7322299,-9.794173,9.897331283056005
1115444.0,0.75615895,-0.4402951,-9.870746,9.90945320031661
1115461.7438845402,0.42354473,-0.15075321,-9.818102,9.828389672323746
1115479.8292563602,0.64369226,-0.45943835,-9.779816,9.811739107665401
1115497.91462818,1.1007377,-0.73701566,-9.846817,9.935523166838047
1115516.0,1.1150951,-0.6460852,-9.760673,9.845384735023414
1115533.7438845402,0.72505116,-0.34218585,-9.861175,9.893713292853324
1115551.8292563602,0.7154795,-0.24407662,-9.82528,9.854319428035142
1115569.91462818,0.90691215,-0.57908374,-9.839638,9.898298015153616
1115588.0,0.9691278,-0.54558307,-9.806137,9.869001592956222
1115606.7438845402,0.7322299,-0.2632199,-9.86596,9.896595983660745
1115624.8292563602,0.70830077,-0.25604117,-9.8922825,9.920912262555486
1115642.91462818,0.90691215,-0.51926106,-9.786994,9.84263040311308
1115661.0,1.0624512,-0.7226582,-9.784601,9.868609535066716
1115678.7438845402,0.859054,-0.51208234,-9.779816,9.830819044805569
1115696.8292563602,0.6676214,-0.31586388,-9.842031,9.869704277706989
1115714.91462818,0.7681235,-0.30868515,-9.815709,9.8505554871674
1115733.0,0.99066395,-0.52165395,-9.832459,9.895998579833226
1115750.7438845402,0.90451926,-0.46183127,-9.851603,9.903813653500846
1115768.8292563602,0.7322299,-0.2991135,-9.861175,9.892845995615279
1115786.91462818,0.73701566,-0.33979294,-9.80853,9.842048165197072
1115805.0,0.93084127,-0.598227,-9.842031,9.904035299736426
1115822.7438845402,0.89734054,-0.6269419,-9.775029,9.836130750531131
1115840.8292563602,0.7872668,-0.43072346,-9.839638,9.88047507382214
1115858.91462818,0.7059079,-0.2680057,-9.818102,9.847093982537126
1115877.0,0.8925547,-0.4091873,-9.830067,9.878983012611286
1115895.7438845402,0.9547703,-0.4737958,-9.861175,9.918610848626168
1115913.8292563602,0.80641,-0.42115182,-9.7917795,9.83395198891115
1115931.91462818,0.7106937,-0.2919348,-9.822887,9.852888940683323
1115950.0,0.80880296,-0.43550926,-9.786994,9.830009262441543
1115967.7438845402,1.0193789,-0.60540575,-9.80853,9.879924606230468
1115985.8292563602,0.9475916,-0.5240469,-9.837245,9.896663285361141
1116003.91462818,0.69872916,-0.39243692,-9.832459,9.865063566034149
1116022.0,0.69155043,-0.34697166,-9.851603,9.881938726772463
1116039.7438845402,0.8734115,-0.5288327,-9.837245,9.890091044219286
1116057.8292563602,0.8710185,-0.5431901,-9.779816,9.833541056299927
1116075.91462818,0.8279462,-0.38765112,-9.837245,9.879633469464173
1116094.0,0.8159817,-0.3326142,-9.8922825,9.931450619148382
1116111.7438845402,0.84708947,-0.46901,-9.813316,9.86096860689359
1116129.8292563602,0.9834852,-0.60779864,-9.813316,9.881185821613764
1116147.91462818,0.77290934,-0.5312256,-9.779816,9.824682716495765
1116166.0,0.7202653,-0.35893622,-9.803744,9.836717629877763
1116184.7438845402,0.7968384,-0.35415038,-9.822887,9.861515245748885
1116202.8292563602,0.9188767,-0.442688,-9.861175,9.913782297174569
1116220.91462818,0.9786994,-0.38765112,-9.834852,9.891028246259415
1116239.0,0.7896597,-0.22971918,-9.789387,9.823870478545254
1116257.7438845402,0.8255533,-0.36850783,-9.832459,9.87393468980797
1116275.8292563602,0.8710185,-0.49054617,-9.777423,9.828393016824924
1116293.91462818,0.83751786,-0.442688,-9.782208,9.8279704001603
1116312.0,0.80641,-0.39243692,-9.822887,9.8637423343804
1116329.7438845402,0.87819725,-0.33500713,-9.853995,9.898721010670187
1116347.8292563602,0.8805902,-0.39722276,-9.8922825,9.93933992180589
1116365.91462818,0.90451926,-0.37568656,-9.873138,9.921600145647858
1116384.0,0.73701566,-0.36372203,-9.844424,9.878672465972771
1116402.7438845402,0.77290934,-0.40440148,-9.820495,9.859160788318162
1116420.8292563602,0.7394086,-0.39961565,-9.822887,9.858779171897902
1116438.91462818,0.86862564,-0.45225963,-9.813316,9.862059632310542
1116457.0,0.90691215,-0.45465255,-9.834852,9.887037597326264
1116474.7438845402,0.83033913,-0.42115182,-9.822887,9.866911418527454
1116492.8292563602,0.8159817,-0.37807947,-9.794173,9.835374673813876
1116510.91462818,0.8829831,-0.3852582,-9.818102,9.86525265352879
1116529.0,0.9212696,-0.3517575,-9.827674,9.877026235915666
1116546.7438845402,0.86623275,-0.4091873,-9.88271,9.929035721949731
1116564.8292563602,0.8566611,-0.3613291,-9.830067,9.873937623017932
1116582.91462818,0.859054,-0.4091873,-9.818102,9.86410335021898
1116601.0,0.84708947,-0.46422416,-9.782208,9.82978422938045
1116618.7438845402,0.9834852,-0.5049036,-9.88271,9.944351548895082
1116636.8292563602,0.6843717,-0.23211208,-9.822887,9.849433976438029
1116654.91462818,0.8542682,-0.39722276,-9.810924,9.85605346030394
1116673.0,0.8805902,-0.37568656,-9.853995,9.900393777609336
1116691.7438845402,0.89734054,-0.36850783,-9.832459,9.880195749689365
1116709.8292563602,0.8566611,-0.39722276,-9.837245,9.88246140145967
1116727.91462818,0.84230363,-0.30868515,-9.796566,9.83755392967671
1116746.0,0.9834852,-0.416366,-9.810924,9.868882080476544
1116763.7438845402,0.83751786,-0.34218585,-9.877925,9.919270619727248
1116781.8292563602,0.93084127,-0.45704544,-9.868353,9.922688493385703
1116799.91462818,0.84708947,-0.33979294,-9.837245,9.87949436976831
1116818.0,0.84708947,-0.3828653,-9.863567,9.907275123444284
1116835.7438845402,0.8805902,-0.39482984,-9.877925,9.924955012921492
1116853.8292563602,0.9212696,-0.3828653,-9.842031,9.892466715576518
1116871.91462818,0.8638398,-0.3613291,-9.834852,9.879326484152392
1116890.0,0.93802,-0.48336744,-9.822887,9.879404567949486
1116907.7438845402,0.93562704,-0.46422416,-9.84921,9.904435352548214
1116925.8292563602,0.9451987,-0.39722276,-9.803744,9.857209692457582
1116943.91462818,0.9451987,-0.37568656,-9.794173,9.846845470899568
1116962.0,0.87580436,-0.30868515,-9.822887,9.866682766441542
1116980.7438845402,0.9739136,-0.39004403,-9.82528,9.881131975841816
1116998.8292563602,0.8925547,-0.33022133,-9.82528,9.871262690136406
1117016.91462818,0.9093051,-0.39482984,-9.779816,9.829930180896325
1117035.0,0.8829831,-0.5072965,-9.767851,9.820790296712321
1117052.7438845402,0.92605543,-0.442688,-9.810924,9.864470642591648
1117070.8292563602,0.83991075,-0.3828653,-9.789387,9.832809046334555
1117088.91462818,0.92605543,-0.43790218,-9.810924,9.864257027899123
1117107.0,0.9739136,-0.42593765,-9.832459,9.88975128952359
1117124.7438845402,0.93323416,-0.39243692,-9.822887,9.874919835033548
1117142.8292563602,0.9547703,-0.35893622,-9.813316,9.866184290375179
1117160.91462818,0.87580436,-0.40440148,-9.858782,9.90586474557094
1117179.0,0.87580436,-0.42593765,-9.846817,9.89486034212568
1117197.7438845402,0.9475916,-0.53840435,-9.858782,9.91884023502816
1117215.8292563602,0.90691215,-0.45704544,-9.765458,9.818123554519287
1117233.91462818,0.87819725,-0.49054617,-9.782208,9.833791705648094
1117252.0,0.9212696,-0.45704544,-9.777423,9.831359454878962
1117270.7438845402,0.8566611,-0.4498667,-9.767851,9.815658991948688
1117288.8292563602,0.9739136,-0.3828653,-9.7917795,9.847539759494719
1117306.91462818,1.014593,-0.42115182,-9.832459,9.893635216532864
1117325.0,0.95237744,-0.27518442,-9.842031,9.8918311478812
1117342.7438845402,0.9188767,-0.3517575,-9.853995,9.902993748793046
1117360.8292563602,0.90691215,-0.42833054,-9.813316,9.864437521479383
1117378.91462818,0.8279462,-0.46183127,-9.82528,9.870912324118994
1117397.0,0.7992313,-0.42593765,-9.758279,9.800214415737454
1117414.7438845402,0.9140909,-0.48815325,-9.727171,9.782214035288197
1117432.8292563602,1.0002356,-0.35893622,-9.863567,9.920648185931414
1117450.91462818,0.9739136,-0.28714898,-9.861175,9.913310981584557
1117469.0,0.9571632,-0.36372203,-9.913818,9.966556197787957
1117486.7438845402,0.92366254,-0.38765112,-9.853995,9.904778813212413
1117504.8292563602,0.86623275,-0.40440148,-9.820495,9.866915514953178
1117522.91462818,0.8255533,-0.4977249,-9.813316,9.860549642037045
1117541.0,0.8734115,-0.5312256,-9.80853,9.861658534309916
1117559.7438845402,0.93323416,-0.5431901,-9.782208,9.841624603559767
1117577.8292563602,1.0241647,-0.4785816,-9.813316,9.878214646202048
1117595.91462818,0.97152066,-0.43790218,-9.868353,9.925724237790641
1117614.0,0.8901618,-0.416366,-9.782208,9.831446588951152
1117631.7438845402,0.83751786,-0.37568656,-9.772636,9.815650306815114
1117649.8292563602,0.89734054,-0.40200856,-9.889889,9.938648568058023
1117667.91462818,0.84948236,-0.46183127,-9.798959,9.846547917193211
1117686.0,1.0241647,-0.63651353,-9.846817,9.920376395988619
1117703.7438845402,1.1103094,-0.60779864,-9.813316,9.894613537999865
1117721.8292563602,0.9834852,-0.5623334,-9.779816,9.84521523305766
1117739.91462818,1.0050215,-0.5623334,-9.794173,9.861648534709946
1117758.0,0.9547703,-0.48336744,-9.772636,9.83105512121208
1117776.7438845402,0.97152066,-0.4498667,-9.837245,9.895333325896644
1117794.8292563602,0.90451926,-0.40440148,-9.84921,9.898920813545137
1117812.91462818,0.9571632,-0.45465255,-9.858782,9.915566189390283
1117831.0,0.9212696,-0.48336744,-9.815709,9.870690195250651
1117848.7438845402,1.0361292,-0.58626246,-9.837245,9.909018951496808
1117866.8292563602,1.0720228,-0.6652284,-9.796566,9.877472708149712
1117884.91462818,1.0433079,-0.6748001,-9.727171,9.806207330686183
1117903.0,0.8997334,-0.5049036,-9.803744,9.857882341248779
1117920.7438845402,1.0289505,-0.5288327,-9.834852,9.902662117730946
1117938.8292563602,1.0265576,-0.4785816,-9.803744,9.868954213669872
1117956.91462818,0.86862564,-0.45225963,-9.856388,9.904919670645349
1117975.0,0.9404129,-0.4977249,-9.80853,9.8660715211003
1117992.7438845402,1.0528796,-0.5838696,-9.770244,9.84414175951547
1118010.8292563602,1.0983448,-0.66283554,-9.782208,9.865967038665705
1118028.91462818,1.0074143,-0.571905,-9.815709,9.88383033411392
1118047.0,0.9667349,-0.57908374,-9.856388,9.920599717323263
1118065.7438845402,0.98109233,-0.5001178,-9.803744,9.865396920114145
1118083.8292563602,0.911698,-0.5168682,-9.80853,9.86436043239881
1118101.91462818,0.86862564,-0.5240469,-9.794173,9.846570997550062
1118120.0,0.9954498,-0.46183127,-9.798959,9.860213279130978
1118137.7438845402,0.9451987,-0.47618872,-9.842031,9.898774191004557
1118155.8292563602,0.9571632,-0.49293905,-9.80853,9.867441971420412
1118173.91462818,0.96194905,-0.63412064,-9.796566,9.864084364664869
1118192.0,0.99305683,-0.650871,-9.751101,9.823124026421109
1118210.7438845402,1.0265576,-0.59583414,-9.7917795,9.863457031139111
1118228.8292563602,0.911698,-0.42115182,-9.827674,9.878853088743112
1118246.91462818,0.99784267,-0.45225963,-9.889889,9.95038357046207
1118265.0,1.0433079,-0.43790218,-9.911426,9.975801473913119
1118282.7438845402,0.9499845,-0.442688,-9.818102,9.873883232952892
1118300.8292563602,0.9212696,-0.571905,-9.770244,9.830232999499307
1118318.91462818,0.8805902,-0.5431901,-9.779816,9.834393503360035
1118337.0,0.8040171,-0.5264398,-9.772636,9.819775799304812
1118355.7438845402,1.0433079,-0.63412064,-9.767851,9.843856638456161
1118373.8292563602,1.0839874,-0.5886554,-9.813316,9.890536627461826
1118391.91462818,1.0217718,-0.49054617,-9.784601,9.850028928149294
1118410.0,0.93802,-0.3804724,-9.846817,9.898709299653706
1118427.7438845402,0.8805902,-0.4091873,-9.775029,9.82313927915401
1118445.8292563602,0.8710185,-0.5049036,-9.830067,9.881488657946443
1118463.91462818,0.99305683,-0.5360114,-9.810924,9.875611364483497
1118482.0,1.0648441,-0.5838696,-9.770244,9.845428608579972
1118499.7438845402,1.014593,-0.56711924,-9.818102,9.886665265418426
1118517.8292563602,0.94280577,-0.5264398,-9.827674,9.88681939924288
1118535.91462818,0.9212696,-0.45465255,-9.798959,9.852666852217558
1118554.0,0.89494765,-0.5049036,-9.842031,9.89552591560926
1118571.7438845402,0.832732,-0.4091873,-9.806137,9.849933994351144
1118589.8292563602,0.8829831,-0.37568656,-9.868353,9.914897401327925
1118607.91462818,0.9164838,-0.43311638,-9.846817,9.898855357351968
1118626.0,1.1246668,-0.4402951,-9.863567,9.937237500915193
1118644.7438845402,1.0744157,-0.5072965,-9.803744,9.875480507441385
1118662.8292563602,0.96434194,-0.5336185,-9.794173,9.855989490391831
1118680.91462818,0.885376,-0.4450809,-9.827674,9.877507981226682
1118699.0,0.82076746,-0.39482984,-9.82528,9.867404770472794
1118716.7438845402,0.8901618,-0.45225963,-9.858782,9.9092133555914
1118734.8292563602,0.911698,-0.33500713,-9.834852,9.88269886631475
1118752.91462818,1.0265576,-0.43072346,-9.877925,9.940460025106338
1118771.0,0.99305683,-0.4402951,-9.853995,9.91368947984143
1118788.7438845402,0.93084127,-0.5168682,-9.827674,9.885180547485334
1118806.8292563602,0.8734115,-0.4498667,-9.779816,9.829040069607874
1118824.91462818,0.96434194,-0.5049036,-9.794173,9.854476534878193
1118843.0,0.911698,-0.40440148,-9.794173,9.844823947342034
1118861.7438845402,0.9786994,-0.39004403,-9.858782,9.914916509200822
1118879.8292563602,1.014593,-0.4737958,-9.806137,9.8698634376832
1118897.91462818,0.98109233,-0.46661708,-9.861175,9.92083897863268
1118916.0,1.0241647,-0.54558307,-9.767851,9.83653838386237
1118933.7438845402,1.0265576,-0.60779864,-9.724778,9.797680686886444
1118951.8292563602,0.99066395,-0.5025107,-9.82528,9.887874349112861
1118969.91462818,0.9571632,-0.4785816,-9.806137,9.864356269015317
1118988.0,0.95237744,-0.46901,-9.839638,9.896740328985345
1119005.7438845402,1.0050215,-0.42833054,-9.853995,9.914371020240463
1119023.8292563602,0.8638398,-0.42833054,-9.842031,9.889148621419427
1119041.91462818,0.9021264,-0.45465255,-9.796566,9.848514932473549
1119060.0,0.97152066,-0.46901,-9.863567,9.922387652999445
1119077.7438845402,0.9763065,-0.50968945,-9.813316,9.874924234303752
1119095.8292563602,1.0433079,-0.52165395,-9.842031,9.910912592829886
1119113.91462818,1.0504867,-0.57908374,-9.846817,9.919610139329986
1119132.0,0.98827106,-0.5551547,-9.739136,9.804878706820478
1119150.7438845402,0.95955616,-0.57908374,-9.834852,9.898504930747388
1119168.8292563602,0.9140909,-0.49293905,-9.830067,9.88477457026546
1119186.91462818,0.9834852,-0.4450809,-9.88271,9.941493705186552
1119205.0,1.0122001,-0.33500713,-9.593168,9.652235549126164
1119223.7438845402,0.93084127,-0.43072346,-9.853995,9.907229967501237
1119241.8292563602,0.97152066,-0.36611494,-9.846817,9.901398768537051
1119259.91462818,0.78248096,-0.36611494,-9.755886,9.794060866006998
1119278.0,0.7968384,-0.19143265,-9.827674,9.861783517471704
1119295.7438845402,0.8566611,-0.36611494,-9.779816,9.824088221478899
1119313.8292563602,0.9140909,-0.35415038,-9.815709,9.86453890649725
1119331.91462818,1.1007377,-0.3613291,-9.880318,9.948008141524218
1119350.0,0.96194905,-0.39961565,-9.827674,9.882723050495589
1119367.7438845402,0.9834852,-0.3613291,-9.763065,9.819126236654197
1119385.8292563602,0.84230363,-0.42354473,-9.86596,9.910904714758484
1119403.91462818,0.89494765,-0.6173703,-9.73435,9.794878626407915
1119422.0,0.9093051,-0.57429796,-9.822887,9.881587065168993
1119440.7438845402,0.9021264,-0.46901,-9.775029,9.827766499694524
1119458.8292563602,0.9475916,-0.30868515,-9.901854,9.951880676512207
1119476.91462818,0.9451987,-0.3828653,-9.875532,9.92804707399445
1119495.0,0.83033913,-0.37329367,-9.786994,9.829245280839583
1119512.7438845402,0.8734115,-0.4115802,-9.870746,9.91785624547363
1119530.8292563602,0.7394086,-0.53840435,-9.715207,9.75816844365283
1119548.91462818,0.77290934,-0.6101916,-9.7917795,9.841172105658455
1119567.0,0.8925547,-0.5360114,-9.801352,9.85649345057998
1119584.7438845402,0.7609448,-0.39961565,-9.861175,9.898560604299847
1119602.8292563602,0.9212696,-0.51926106,-9.830067,9.88678850531382
1119620.91462818,0.81119585,-0.41875893,-9.772636,9.81518273579295
1119639.0,0.8255533,-0.45704544,-9.88271,9.927657615443115
1119656.7438845402,0.8040171,-0.3828653,-9.851603,9.891769862094726
1119674.8292563602,0.84708947,-0.3804724,-9.810924,9.85477293249939
1119692.91462818,0.84708947,-0.3852582,-9.846817,9.890692062860976
1119711.0,0.95237744,-0.5168682,-9.786994,9.84679780844657
1119729.7438845402,0.8710185,-0.60301286,-9.789387,9.846542315576398
1119747.8292563602,0.677193,-0.3613291,-9.839638,9.869530133131963
1119765.91462818,0.8231604,-0.44747382,-9.822887,9.867468514187545
1119784.0,0.79205257,-0.42354473,-9.880318,9.921059479364006
1119801.7438845402,0.94280577,-0.37568656,-9.930569,9.982295516316421
1119819.8292563602,0.9284483,-0.35415038,-9.889889,9.939685265125252
1119837.91462818,0.86623275,-0.36611494,-9.86596,9.91067939386921
1119856.0,0.7609448,-0.4139731,-9.851603,9.889615381084326
1119873.7438845402,0.75615895,-0.58626246,-9.779816,9.826509096496393
1119891.8292563602,0.79205257,-0.51926106,-9.794173,9.8398579296657
1119909.91462818,0.8446966,-0.416366,-9.880318,9.925097318068552
1119928.0,0.8734115,-0.39004403,-9.803744,9.85029839198828
1119945.7438845402,0.8710185,-0.4139731,-9.868353,9.915363729459191
1119963.8292563602,0.9451987,-0.5001178,-9.755886,9.814317604467186
1119981.91462818,0.77530223,-0.42833054,-9.782208,9.822227545450355
1120000.0,0.83751786,-0.4091873,-9.813316,9.857486562413174
1120018.7438845402,0.832732,-0.36372203,-9.803744,9.845767248745387
1120036.8292563602,0.83991075,-0.45943835,-9.837245,9.88372009192092
1120054.91462818,0.89494765,-0.4139731,-9.820495,9.869874724067632
1120073.0,0.8231604,-0.3852582,-9.877925,9.919648140454397
1120090.7438845402,0.71787244,-0.3254355,-9.789387,9.821066486921916
1120108.8292563602,0.78008807,-0.39004403,-9.786994,9.825778508511728
1120126.91462818,0.8734115,-0.37329367,-9.858782,9.904432257121975
1120145.0,0.911698,-0.39722276,-9.844424,9.894526924317404
1120163.7438845402,0.9691278,-0.42354473,-9.873138,9.929625007928932
1120181.8292563602,0.8997334,-0.42833054,-9.846817,9.897110299176283
1120199.91462818,0.8829831,-0.42115182,-9.815709,9.86433835505737
1120218.0,0.80162424,-0.45225963,-9.80853,9.851619204779654
1120236.7438845402,0.7681235,-0.40440148,-9.830067,9.868321614781687
1120254.8292563602,0.77530223,-0.37090075,-9.851603,9.889021315772483
1120272.91462818,0.7944455,-0.30868515,-9.846817,9.883634716327277
1120291.0,0.84708947,-0.3278284,-9.873138,9.914831617182182
1120308.7438845402,0.8877689,-0.4139731,-9.863567,9.912086627487666
1120326.8292563602,0.8351249,-0.45465255,-9.806137,9.852129993183732
1120344.91462818,0.8638398,-0.43790218,-9.801352,9.849085162958882
1120363.0,0.8614469,-0.46183127,-9.844424,9.892828856057575
1120380.7438845402,0.8231604,-0.3804724,-9.858782,9.900400740112186
1120398.8292563602,0.84230363,-0.4402951,-9.861175,9.90687173434784
1120416.91462818,0.8231604,-0.416366,-9.80853,9.851812749488499
1120435.0,0.83991075,-0.33500713,-9.820495,9.862038424694024
1120452.7438845402,0.8566611,-0.37329367,-9.837245,9.881528504960164
1120470.8292563602,0.8614469,-0.37090075,-9.813316,9.858033731111199
1120488.91462818,0.8734115,-0.42115182,-9.813316,9.861104776832947
1120507.0,0.8542682,-0.43072346,-9.880318,9.926529133471055
1120525.7438845402,0.8255533,-0.39243692,-9.832459,9.874856706504707
1120543.8292563602,0.84230363,-0.43790218,-9.827674,9.87341936588515
1120561.91462818,0.84230363,-0.39482984,-9.796566,9.840633688946134
1120580.0,0.7968384,-0.3828653,-9.810924,9.850673429133394
1120597.7438845402,0.83991075,-0.35893622,-9.815709,9.858114852783693
1120615.8292563602,0.8542682,-0.39482984,-9.856388,9.901214529876103
1120633.91462818,0.832732,-0.39004403,-9.798959,9.84201068953106
1120652.0,0.8829831,-0.4091873,-9.844424,9.892410085168471
1120669.7438845402,0.9021264,-0.4450809,-9.84921,9.900447801651286
1120687.8292563602,0.8901618,-0.43790218,-9.813316,9.863331955545448
1120705.91462818,0.90451926,-0.4977249,-9.861175,9.915072241210144
1120724.0,0.90451926,-0.39722276,-9.820495,9.870058918658893
1120741.7438845402,0.86862564,-0.34457877,-9.820495,9.864855147250015
1120759.8292563602,0.83033913,-0.40200856,-9.839638,9.88279059396517
1120777.91462818,0.80641,-0.40679437,-9.806137,9.84764447014273
1120796.0,0.7681235,-0.39243692,-9.861175,9.898827851218362
1120814.7438845402,0.84948236,-0.37329367,-9.80853,9.852321005981953
1120832.8292563602,0.8542682,-0.40440148,-9.810924,9.856345390068949
1120850.91462818,0.86862564,-0.39243692,-9.88271,9.928568586797619
1120869.0,0.87580436,-0.4139731,-9.839638,9.887208047551272
1120886.7438845402,0.8614469,-0.37090075,-9.837245,9.881854447313781
1120904.8292563602,0.7657306,-0.34457877,-9.818102,9.853943614762319
1120922.91462818,0.8829831,-0.4139731,-9.810924,9.85927292533203
1120941.0,0.859054,-0.40440148,-9.842031,9.887724133333373
1120958.7438845402,0.83991075,-0.36372203,-9.853995,9.896411533636718
1120976.8292563602,0.84948236,-0.37329367,-9.873138,9.916643706973506
1120994.91462818,0.90451926,-0.3852582,-9.851603,9.900538401621763
1121013.0,0.8279462,-0.37807947,-9.820495,9.862583892710617
1121030.7438845402,0.7776951,-0.30629224,-9.853995,9.889380266976957
1121048.8292563602,0.83033913,-0.36850783,-9.834852,9.876718835396929
1121066.91462818,0.8518753,-0.32064968,-9.899461,9.94121903161555
1121085.0,0.83033913,-0.33022133,-9.863567,9.903961993115944
1121103.7438845402,0.8159817,-0.33740005,-9.851603,9.891094307410272
1121121.8292563602,0.7968384,-0.35415038,-9.810924,9.849599162460608
1121139.91462818,0.7657306,-0.33022133,-9.779816,9.815303890986735
1121158.0,0.7513731,-0.28954187,-9.830067,9.862992104547976
1121176.7438845402,0.73701566,-0.2680057,-9.86596,9.897079663209633
1121194.8292563602,0.7202653,-0.27757734,-9.86596,9.896110246135375
1121212.91462818,0.8183746,-0.26082698,-9.803744,9.841298903953536
1121231.0,0.78248096,-0.25364825,-9.84921,9.883498950856957
1121248.7438845402,0.73701566,-0.2656128,-9.84921,9.880317801908452
1121266.8292563602,0.72505116,-0.31586388,-9.830067,9.861829769357966
1121284.91462818,0.75376606,-0.34457877,-9.889889,9.924555518221641
1121303.0,0.7776951,-0.28236315,-9.813316,9.848132286525093
1121320.7438845402,0.69872916,-0.22014755,-9.834852,9.862099231132756
1121338.8292563602,0.83991075,-0.22971918,-9.889889,9.928148135576263
1121356.91462818,0.75855184,-0.30389932,-9.842031,9.87589640972529
1121375.0,0.6939433,-0.19143265,-9.863567,9.889800691954814
1121393.7438845402,0.6843717,-0.2368979,-9.858782,9.885346112418588
1121411.8292563602,0.7394086,-0.34457877,-9.813316,9.847163577515339
1121429.91462818,0.74658734,-0.2919348,-9.851603,9.884164115053348
1121448.0,0.74658734,-0.32064968,-9.868353,9.901747310759925
1121465.7438845402,0.75855184,-0.30868515,-9.858782,9.892738242737543
1121483.8292563602,0.73701566,-0.30389932,-9.832459,9.86472487535576
1121501.91462818,0.6939433,-0.234505,-9.842031,9.869251445960879
1121520.0,0.72505116,-0.27518442,-9.822887,9.853452931048947
1121537.7438845402,0.77290934,-0.27518442,-9.851603,9.885706701216609
1121555.8292563602,0.69872916,-0.27279153,-9.899461,9.927837919123935
1121573.91462818,0.7106937,-0.23211208,-9.853995,9.882316480103569
1121592.0,0.7609448,-0.3278284,-9.832459,9.867307557544489
1121610.7438845402,0.72505116,-0.27518442,-9.86596,9.896392896971506
1121628.8292563602,0.677193,-0.28714898,-9.82528,9.85277483627653
1121646.91462818,0.7130866,-0.28475606,-9.851603,9.881480667512097
1121665.0,0.69633627,-0.26082698,-9.846817,9.874852907557784
1121682.7438845402,0.7394086,-0.27757734,-9.873138,9.904677088349697
1121700.8292563602,0.78487384,-0.31586388,-9.856388,9.892632680027546
1121718.91462818,0.7513731,-0.3230426,-9.837245,9.871185706228172
1121737.0,0.6939433,-0.23211208,-9.80853,9.835786398768366
1121754.7438845402,0.7106937,-0.34457877,-9.861175,9.892754542824733
1121772.8292563602,0.71787244,-0.25364825,-9.839638,9.869050321377616
1121790.91462818,0.66283554,-0.18903974,-9.837245,9.861362794584293
1121809.0,0.69872916,-0.3517575,-9.777423,9.808667406878957
1121826.7438845402,0.7322299,-0.234505,-9.846817,9.876788863439778
1121844.8292563602,0.67240715,-0.234505,-9.84921,9.87492083991037
1121862.91462818,0.63172776,-0.27757734,-9.782208,9.80651428886432
1121881.0,0.6389065,-0.28954187,-9.842031,9.866996007660404
1121899.7438845402,0.70830077,-0.37807947,-9.830067,9.862801391638538
1121917.8292563602,0.7394086,-0.40679437,-9.853995,9.890066946044533
1121935.91462818,0.7130866,-0.37568656,-9.861175,9.894059089731028
1121954.0,0.66044265,-0.3613291,-9.837245,9.866008939914398
1121971.7438845402,0.6293348,-0.4115802,-9.851603,9.880260230435841
1121989.8292563602,0.5910483,-0.36850783,-9.84921,9.873807459020263
1122007.91462818,0.82076746,-0.46422416,-9.842031,9.887099549366516
1122026.0,0.6101916,-0.34457877,-9.810924,9.835918770060134
1122043.7438845402,0.62454903,-0.28714898,-9.880318,9.904201119157113
1122061.8292563602,0.5551547,-0.18186101,-9.86596,9.88324020195251
1122079.91462818,0.7441944,-0.37807947,-9.889889,9.92505283728746
1122098.0,0.96434194,-0.5336185,-9.810924,9.872635606288789
1122116.7438845402,0.8734115,-0.48336744,-9.82528,9.875860408530711
1122134.8292563602,0.7657306,-0.3565433,-9.889889,9.925893960186773
1122152.91462818,0.70112205,-0.33979294,-9.837245,9.868050494454062
1122171.0,0.83991075,-0.43311638,-9.853995,9.899204883555793
1122189.7438845402,0.45943835,-0.21536173,-9.86596,9.878999493562054
1122207.8292563602,0.650871,-0.2392908,-9.810924,9.83540151083735
1122225.91462818,0.5336185,-0.12682413,-9.887496,9.902697118134459
1122244.0,0.55754757,-0.13400285,-9.839638,9.856332585077729
1122261.7438845402,0.74658734,-0.22493336,-9.861175,9.8919543090996
1122279.8292563602,0.7346228,-0.30389932,-9.837245,9.8693168276736
1122297.91462818,0.72983694,-0.31825677,-9.856388,9.888495018817748
1122316.0,0.6460852,-0.30150643,-9.844424,9.87020851374308
1122333.7438845402,0.6676214,-0.2967206,-9.858782,9.88581529120013
1122351.8292563602,0.6197632,-0.27997026,-9.830067,9.853563162381803
1122369.91462818,0.69872916,-0.2368979,-9.894675,9.922143740628014
1122388.0,0.6125845,-0.17707519,-9.870746,9.891321549169747
1122405.7438845402,0.66044265,-0.21296883,-9.870746,9.895108226442327
1122423.8292563602,0.6819788,-0.20339718,-9.842031,9.867727180128279
1122441.91462818,0.6484781,-0.27279153,-9.822887,9.848047932447747
1122460.0,0.6795859,-0.2680057,-9.861175,9.888196824059293
1122478.7438845402,0.66044265,-0.21057591,-9.844424,9.868799856091284
1122496.8292563602,0.7202653,-0.2680057,-9.870746,9.900617948094583
1122514.91462818,0.68915755,-0.24407662,-9.873138,9.900169972894235
1122533.0,0.6843717,-0.2368979,-9.875532,9.902051177498999
1122550.7438845402,0.6676214,-0.18425392,-9.837245,9.861595055101295
1122568.8292563602,0.6748001,-0.28236315,-9.885103,9.912131226131288
1122586.91462818,0.6197632,-0.2632199,-9.837245,9.860262690712416
1122605.0,0.7322299,-0.3254355,-9.827674,9.86028626062095
1122622.7438845402,0.6221561,-0.28475606,-9.820495,9.844302223697671
1122640.8292563602,0.6939433,-0.2392908,-9.894675,9.921865285630748
1122658.91462818,0.6197632,-0.22254045,-9.897068,9.918950835274085
1122677.0,0.67001426,-0.24646953,-9.846817,9.872662830731675
1122695.7438845402,0.6293348,-0.24168372,-9.856388,9.879415859125887
1122713.8292563602,0.6293348,-0.27039862,-9.88271,9.906418860935013
1122731.91462818,0.7130866,-0.18903974,-9.86596,9.893502678222653
1122750.0,0.6532639,-0.234505,-9.834852,9.859313372642752
1122767.7438845402,0.64369226,-0.2656128,-9.834852,9.859472792548887
1122785.8292563602,0.7202653,-0.2632199,-9.856388,9.886174751878713
1122803.91462818,0.6795859,-0.2943277,-9.820495,9.848379959947275
1122822.0,0.63651353,-0.27039862,-9.853995,9.878232754273203
1122839.7438845402,0.650871,-0.22254045,-9.858782,9.882749608992995
1122857.8292563602,0.6867646,-0.2392908,-9.877925,9.904660923444213
1122875.91462818,0.6652284,-0.234505,-9.834852,9.860113350316798
1122894.0,0.71787244,-0.2632199,-9.861175,9.890773374033627
1122911.7438845402,0.5527618,-0.25364825,-9.820495,9.839309177340262
1122929.8292563602,0.6795859,-0.2632199,-9.870746,9.89761326319385
1122947.91462818,0.67001426,-0.28714898,-9.822887,9.849897596426441
1122966.0,0.6221561,-0.22732627,-9.832459,9.854745325602297
1122984.7438845402,0.7130866,-0.2392908,-9.875532,9.90413473601244
1123002.8292563602,0.6197632,-0.22971918,-9.853995,9.876137645140387
1123020.91462818,0.6125845,-0.2392908,-9.856388,9.878304726173864
1123039.0,0.6843717,-0.2656128,-9.839638,9.8669848866981
1123057.7438845402,0.6795859,-0.2632199,-9.858782,9.885681778954794
1123075.8292563602,0.69155043,-0.32064968,-9.84921,9.878663666641216
1123093.91462818,0.67001426,-0.23211208,-9.794173,9.819807527656247
1123112.0,0.71787244,-0.28714898,-9.870746,9.90098085915444
1123129.7438845402,0.6556568,-0.33022133,-9.86596,9.893234996085617
1123147.8292563602,0.6293348,-0.234505,-9.832459,9.85536934225182
1123165.91462818,0.6939433,-0.24646953,-9.827674,9.855226064535978
1123184.0,0.6652284,-0.24886245,-9.856388,9.881945443571857
1123201.7438845402,0.6748001,-0.2632199,-9.853995,9.88057980842931
1123219.8292563602,0.61497736,-0.24646953,-9.846817,9.869080474594378
1123237.91462818,0.6843717,-0.2943277,-9.84921,9.877344331491546
1123256.0,0.64369226,-0.2967206,-9.818102,9.843653271141374
1123274.7438845402,0.650871,-0.234505,-9.853995,9.878251014916101
1123292.8292563602,0.6173703,-0.22493336,-9.868353,9.890203842003055
1123310.91462818,0.7059079,-0.31347096,-9.870746,9.900918977678877
1123329.0,0.70112205,-0.2368979,-9.86596,9.893677752262835
1123346.7438845402,0.67001426,-0.18186101,-9.846817,9.8712611943485
1123364.8292563602,0.69633627,-0.24407662,-9.873138,9.900672278405752
1123382.91462818,0.66283554,-0.21057591,-9.858782,9.88328263738741
1123401.0,0.5623334,-0.2392908,-9.875532,9.894423238508862
1123418.7438845402,0.62454903,-0.27518442,-9.875532,9.899086838638636
1123436.8292563602,0.6173703,-0.30868515,-9.870746,9.894850135584097
1123454.91462818,0.6676214,-0.28714898,-9.894675,9.92132885384201
1123473.0,0.650871,-0.2584341,-9.887496,9.912265048549692
1123490.7438845402,0.59583414,-0.234505,-9.82528,9.84612299312854
1123508.8292563602,0.64129937,-0.27997026,-9.818102,9.84300640611652
1123526.91462818,0.67240715,-0.30629224,-9.84921,9.8768863482251
1123545.0,0.6652284,-0.27279153,-9.810924,9.837234051133596
1123563.7438845402,0.6819788,-0.24407662,-9.861175,9.887741949540604
1123581.8292563602,0.703515,-0.2656128,-9.846817,9.875489281359068
1123599.91462818,0.6221561,-0.25364825,-9.868353,9.891198440032648
1123618.0,0.598227,-0.2632199,-9.786994,9.80879257683233
1123635.7438845402,0.6221561,-0.26082698,-9.86596,9.888997706939927
1123653.8292563602,0.6173703,-0.23211208,-9.887496,9.909470180338605
1123671.91462818,0.70112205,-0.2632199,-9.913818,9.942064382303919
1123690.0,0.61497736,-0.2967206,-9.851603,9.875237816750843
1123707.7438845402,0.7130866,-0.27518442,-9.832459,9.862122943402769
1123725.8292563602,0.6460852,-0.25604117,-9.858782,9.883246718053638
1123743.91462818,0.6652284,-0.27997026,-9.863567,9.889937620336138
1123762.0,0.6460852,-0.26082698,-9.846817,9.871436664976581
1123779.7438845402,0.6676214,-0.23211208,-9.839638,9.864992160283956
1123797.8292563602,0.6556568,-0.27518442,-9.856388,9.882003678958078
1123815.91462818,0.6173703,-0.22014755,-9.846817,9.868607605056656
1123834.0,0.66283554,-0.3230426,-9.894675,9.922111712237816
1123852.7438845402,0.6580497,-0.27997026,-9.868353,9.89423082845572
1123870.8292563602,0.66283554,-0.2919348,-9.842031,9.86864484544353
1123888.91462818,0.60540575,-0.2632199,-9.803744,9.825945107490936
1123907.0,0.64369226,-0.2392908,-9.861175,9.885058026798504
1123924.7438845402,0.68915755,-0.27039862,-9.861175,9.888924406781806
1123942.8292563602,0.6748001,-0.30150643,-9.873138,9.900763368010336
1123960.91462818,0.67240715,-0.22254045,-9.868353,9.893737744647689
1123979.0,0.6532639,-0.28236315,-9.853995,9.879660932013108
1123997.7438845402,0.64369226,-0.2943277,-9.837245,9.862674977438736
1124015.8292563602,0.7346228,-0.32064968,-9.82528,9.85792138099934
1124033.91462818,0.6460852,-0.27997026,-9.853995,9.879120755015018
1124052.0,0.6556568,-0.27518442,-9.84921,9.874844298949577
1124070.7438845402,0.7441944,-0.24886245,-9.853995,9.885189693882275
1124088.8292563602,0.6867646,-0.27997026,-9.875532,9.903340913314134
1124106.91462818,0.6580497,-0.27757734,-9.916211,9.941897162205642
1124125.0,0.6580497,-0.27279153,-9.844424,9.870163550736423
1124142.7438845402,0.6748001,-0.28954187,-9.844424,9.87177155130826
1124160.8292563602,0.6652284,-0.2392908,-9.861175,9.886483767839614
1124178.91462818,0.69872916,-0.31586388,-9.853995,9.88378520050633
1124197.0,0.6652284,-0.27518442,-9.863567,9.88980329696533
1124214.7438845402,0.6460852,-0.20100428,-9.832459,9.855713002767398
1124232.8292563602,0.68915755,-0.2991135,-9.86596,9.894522410718176
1124250.91462818,0.6580497,-0.2991135,-9.870746,9.897177622437033
1124269.0,0.69155043,-0.3230426,-9.856388,9.885898185050863
1124286.7438845402,0.7059079,-0.2967206,-9.858782,9.888474685272282
1124304.8292563602,0.67001426,-0.31586388,-9.846817,9.87463893672984
1124322.91462818,0.69155043,-0.33022133,-9.863567,9.893292782866034
1124341.0,0.66044265,-0.26082698,-9.846817,9.872386754930336
1124359.7438845402,0.64129937,-0.19621846,-9.844424,9.867241278988933
1124377.8292563602,0.6580497,-0.24168372,-9.837245,9.862191927670446
1124395.91462818,0.67240715,-0.30389932,-9.868353,9.89590203592763
1124414.0,0.6532639,-0.28236315,-9.842031,9.867728050391444
1124431.7438845402,0.63412064,-0.27279153,-9.861175,9.885307106283483
1124449.8292563602,0.69872916,-0.31107804,-9.853995,9.883633413175012
1124467.91462818,0.69872916,-0.3517575,-9.923389,9.954175255799024
1124486.0,0.68915755,-0.30389932,-9.851603,9.88035295903074
1124503.7438845402,0.70830077,-0.30629224,-9.818102,9.848382191988225
1124521.8292563602,0.61497736,-0.22014755,-9.846817,9.868458194093572
1124539.91462818,0.63412064,-0.2656128,-9.856388,9.880336206432546
1124558.0,0.6580497,-0.24886245,-9.863567,9.888625581453628
1124575.7438845402,0.6867646,-0.26082698,-9.897068,9.924295003975502
1124593.8292563602,0.677193,-0.27039862,-9.88271,9.909574295450177
1124611.91462818,0.67001426,-0.2991135,-9.82528,9.852640005241518
1124630.0,0.69633627,-0.31586388,-9.827674,9.857374419280326
1124648.7438845402,0.70112205,-0.33740005,-9.830067,9.860812752873121
1124666.8292563602,0.6484781,-0.21775463,-9.839638,9.86338769876304
1124684.91462818,0.677193,-0.2057901,-9.873138,9.898474321406862
1124703.0,0.6389065,-0.24646953,-9.818102,9.841954868183691
1124720.7438845402,0.6819788,-0.22014755,-9.84921,9.87524671345078
1124738.8292563602,0.61497736,-0.20100428,-9.875532,9.89670309531992
1124756.91462818,0.64129937,-0.31107804,-9.837245,9.863033185534642
1124775.0,0.66283554,-0.31107804,-9.858782,9.885934605467575
1124792.7438845402,0.6819788,-0.3613291,-9.856388,9.886558461299881
1124810.8292563602,0.62454903,-0.28475606,-9.830067,9.854002472552443
1124828.91462818,0.7130866,-0.24168372,-9.861175,9.889877446168763
1124847.0,0.68915755,-0.24886245,-9.868353,9.895517246731018
1124864.7438845402,0.7226582,-0.2967206,-9.853995,9.884912515976891
1124882.8292563602,0.6748001,-0.24168372,-9.909033,9.934923310753941
1124900.91462818,0.70112205,-0.2680057,-9.796566,9.825278854902017
1124919.0,0.66283554,-0.2584341,-9.820495,9.84623081093242
1124937.7438845402,0.70830077,-0.34218585,-9.844424,9.875801994192614
1124955.8292563602,0.6532639,-0.2967206,-9.906639,9.93258743298183
1124973.91462818,0.69155043,-0.2919348,-9.856388,9.884930567850652
1124992.0,0.63651353,-0.24168372,-9.858782,9.88226406335664
1125010.7438845402,0.6867646,-0.27518442,-9.810924,9.838780504442605
1125028.8292563602,0.70112205,-0.30150643,-9.887496,9.916907552576234
1125046.91462818,0.6867646,-0.2656128,-9.913818,9.941125847330422
1125065.0,0.6867646,-0.2680057,-9.897068,9.924486267191348
1125082.7438845402,0.63412064,-0.31825677,-9.827674,9.853251879861837
1125100.8292563602,0.6748001,-0.2943277,-9.837245,9.864754085124083
1125118.91462818,0.69155043,-0.31107804,-9.851603,9.880743555715453
1125137.0,0.6795859,-0.2680057,-9.844424,9.871491677679078
1125154.7438845402,0.63172776,-0.27757734,-9.856388,9.880511806024023
1125172.8292563602,0.6843717,-0.30389932,-9.877925,9.906266790576677
1125190.91462818,0.7130866,-0.2368979,-9.851603,9.88021734496428
1125209.0,0.64369226,-0.25364825,-9.868353,9.892576413297043
1125227.7438845402,0.67240715,-0.27279153,-9.858782,9.885450375058026
1125245.8292563602,0.6652284,-0.33022133,-9.827674,9.855696383372893
1125263.91462818,0.69155043,-0.27518442,-9.820495,9.848659325373626
1125282.0,0.6748001,-0.26082698,-9.853995,9.880516350296725
1125299.7438845402,0.70112205,-0.24646953,-9.901854,9.929704527101027
1125317.8292563602,0.68915755,-0.25604117,-9.86596,9.893314001438394
1125335.91462818,0.61497736,-0.28236315,-9.822887,9.84616855007873
1125354.0,0.63651353,-0.27039862,-9.820495,9.84481523100337
1125371.7438845402,0.6556568,-0.2967206,-9.868353,9.894560115864657
1125389.8292563602,0.7202653,-0.2943277,-9.868353,9.898979837840887
1125407.91462818,0.7633377,-0.2919348,-9.870746,9.90452103678963
1125426.0,0.6939433,-0.28475606,-9.822887,9.851484778046942
1125444.7438845402,0.6795859,-0.2656128,-9.853995,9.880971845675285
1125462.8292563602,0.67001426,-0.24646953,-9.875532,9.90130287491731
1125480.91462818,0.69872916,-0.2584341,-9.861175,9.889276161767457
1125499.0,0.67240715,-0.25125536,-9.853995,9.880105166005311
1125516.7438845402,0.6532639,-0.27279153,-9.863567,9.88893942267683
1125534.8292563602,0.6676214,-0.31347096,-9.842031,9.869627985971016
1125552.91462818,0.69633627,-0.2919348,-9.875532,9.904354719586358
1125571.0,0.7202653,-0.2919348,-9.880318,9.910837089315875
1125588.7438845402,0.68915755,-0.2656128,-9.813316,9.841070023330891
1125606.8292563602,0.66044265,-0.22493336,-9.832459,9.857181620375112
1125624.91462818,0.66283554,-0.28236315,-9.86596,9.892231630080495
1125643.0,0.7059079,-0.27997026,-9.839638,9.868898888974945
1125660.7438845402,0.6819788,-0.28236315,-9.84921,9.87682953463445
1125678.8292563602,0.6580497,-0.2680057,-9.863567,9.889125867658455
1125696.91462818,0.6748001,-0.2680057,-9.877925,9.904573919953219
1125715.0,0.72983694,-0.2919348,-9.889889,9.921078183280313
1125733.7438845402,0.6652284,-0.2632199,-9.846817,9.872771574963718
1125751.8292563602,0.6556568,-0.27997026,-9.784601,9.810539532312772
1125769.91462818,0.6748001,-0.31107804,-9.851603,9.879585334999605
1125788.0,0.6867646,-0.28714898,-9.846817,9.874912920325789
1125805.7438845402,0.6819788,-0.27757734,-9.84921,9.876693874340285
1125823.8292563602,0.7130866,-0.22971918,-9.851603,9.880047827332033
1125841.91462818,0.69155043,-0.27518442,-9.846817,9.874906252402242
1125860.0,0.64369226,-0.28954187,-9.870746,9.895948707253035
1125877.7438845402,0.6484781,-0.30868515,-9.844424,9.870587331045003
1125895.8292563602,0.6532639,-0.2991135,-9.820495,9.846742844918337
1125913.91462818,0.70112205,-0.2656128,-9.875532,9.903951462499402
1125932.0,0.7059079,-0.26082698,-9.86596,9.894619921875641
1125949.7438845402,0.703515,-0.3278284,-9.837245,9.867816070696522
1125967.8292563602,0.6293348,-0.27279153,-9.873138,9.896935458836477
1125985.91462818,0.6795859,-0.2680057,-9.906639,9.933537150835663
1126004.0,0.60540575,-0.21536173,-9.842031,9.862984893116417
1126022.7438845402,0.7322299,-0.28475606,-9.877925,9.909119483878762
1126040.8292563602,0.7202653,-0.3230426,-9.873138,9.904645000748026
1126058.91462818,0.6867646,-0.2656128,-9.851603,9.879082824075624
1126077.0,0.6556568,-0.3326142,-9.86596,9.893315155549622
1126095.7438845402,0.6652284,-0.27997026,-9.806137,9.832661645425414
1126113.8292563602,0.7394086,-0.27518442,-9.834852,9.866446442598708
1126131.91462818,0.6652284,-0.27757734,-9.815709,9.842140070966733
1126150.0,0.6532639,-0.24407662,-9.916211,9.94070257657852
1126167.7438845402,0.7106937,-0.25604117,-9.837245,9.866206556016332
1126185.8292563602,0.63651353,-0.234505,-9.870746,9.89402691857133
1126203.91462818,0.63651353,-0.27279153,-9.806137,9.830558862825745
1126222.0,0.6867646,-0.30629224,-9.875532,9.904119992968653
1126239.7438845402,0.6532639,-0.30868515,-9.842031,9.868516324647528
1126257.8292563602,0.6939433,-0.32064968,-9.861175,9.890760633112297
1126275.91462818,0.72505116,-0.31347096,-9.887496,9.91899896044942
1126294.0,0.69872916,-0.28954187,-9.834852,9.863892274118843
1126312.7438845402,0.6676214,-0.32064968,-9.858782,9.886562449837964
1126330.8292563602,0.6173703,-0.27518442,-9.853995,9.877149893180613
1126348.91462818,0.67001426,-0.234505,-9.846817,9.872371383569266
1126367.0,0.69155043,-0.28475606,-9.858782,9.887108299925915
1126384.7438845402,0.7346228,-0.28236315,-9.875532,9.90684268017726
1126402.8292563602,0.7202653,-0.24168372,-9.887496,9.916641078153082
1126420.91462818,0.6125845,-0.25604117,-9.856388,9.878724677655473
1126439.0,0.6556568,-0.3254355,-9.88271,9.90978057517655
1126456.7438845402,0.63651353,-0.34697166,-9.815709,9.842442886773446
1126474.8292563602,0.6580497,-0.3278284,-9.842031,9.869451609510918
1126492.91462818,0.703515,-0.30629224,-9.868353,9.898138169581097
1126511.0,0.6843717,-0.27518442,-9.832459,9.86008828943497
1126528.7438845402,0.6748001,-0.28714898,-9.885103,9.912268712675422
1126546.8292563602,0.650871,-0.28236315,-9.837245,9.86279631733029
1126564.91462818,0.677193,-0.28954187,-9.842031,9.869549080818896
1126583.0,0.6556568,-0.2991135,-9.832459,9.858833841380505
1126601.7438845402,0.6795859,-0.31586388,-9.837245,9.86574863739151
1126619.8292563602,0.6867646,-0.27997026,-9.863567,9.891409552019704
1126637.91462818,0.6939433,-0.24407662,-9.906639,9.933912974068502
1126656.0,0.6556568,-0.2991135,-9.928176,9.954297233468795
1126673.7438845402,0.677193,-0.25604117,-9.88271,9.909192922942006
1126691.8292563602,0.6676214,-0.30150643,-9.803744,9.831074248453488
1126709.91462818,0.6484781,-0.25364825,-9.861175,9.885728787577204
1126728.0,0.70830077,-0.3254355,-9.861175,9.89193462504013
1126745.7438845402,0.68915755,-0.3828653,-9.846817,9.878326224525848
1126763.8292563602,0.7346228,-0.33740005,-9.839638,9.87279015390603
1126781.91462818,0.6293348,-0.3254355,-9.861175,9.88659410190265
1126800.0,0.71787244,-0.2392908,-9.813316,9.842447451875586
1126818.7438845402,0.63412064,-0.25364825,-9.834852,9.858537431216968
1126836.8292563602,0.63412064,-0.30868515,-9.822887,9.848172648906676
1126854.91462818,0.72983694,-0.38765112,-9.887496,9.921971200313061
1126873.0,0.7226582,-0.4139731,-9.899461,9.9344318756571
1126890.7438845402,0.70112205,-0.39482984,-9.842031,9.874868957941246
1126908.8292563602,0.69155043,-0.416366,-9.760673,9.793995101903931
1126926.91462818,0.7394086,-0.37568656,-9.846817,9.881683586343351
1126945.0,0.81119585,-0.37807947,-9.844424,9.885022341121374
1126962.7438845402,0.74658734,-0.2943277,-9.868353,9.90092987470594
1126980.8292563602,0.7202653,-0.2680057,-9.920997,9.950718096279564
1126998.91462818,0.63651353,-0.21057591,-9.834852,9.857677492677947
1127017.0,0.571905,-0.30629224,-9.80853,9.829961903599077
1127035.7438845402,0.5934412,-0.30868515,-9.858782,9.88144936247775
1127053.8292563602,0.6819788,-0.3852582,-9.877925,9.908931388900706
1127071.91462818,0.73701566,-0.32064968,-9.837245,9.87002520211546
1127090.0,0.8231604,-0.31107804,-9.873138,9.912276053366472
1127108.7438845402,0.7394086,-0.33500713,-9.856388,9.88975931261468
1127126.8292563602,0.6867646,-0.30150643,-9.861175,9.889657432073646
1127144.91462818,0.60540575,-0.34936458,-9.846817,9.871594438761178
1127163.0,0.6293348,-0.43311638,-9.832459,9.862094203352367
1127180.7438845402,0.6819788,-0.4785816,-9.770244,9.805702588343378
1127198.8292563602,0.69633627,-0.46422416,-9.784601,9.820326114791007
1127216.91462818,0.78008807,-0.42354473,-9.894675,9.93441094835985
1127235.0,0.80162424,-0.4115802,-9.870746,9.911792283926436
1127252.7438845402,0.7944455,-0.37568656,-9.844424,9.883570606598148
1127270.8292563602,0.6748001,-0.23211208,-9.889889,9.915600618467998
1127288.91462818,0.650871,-0.23211208,-9.887496,9.911613704454938
1127307.0,0.72744405,-0.31347096,-9.889889,9.921559520607873
1127324.7438845402,0.6939433,-0.40200856,-9.830067,9.862727077761868
1127342.8292563602,0.7394086,-0.5049036,-9.798959,9.8397789714367
1127360.91462818,0.78487384,-0.5264398,-9.827674,9.873010789927072
1127379.0,0.7418015,-0.4785816,-9.80853,9.848176002395611
1127397.7438845402,0.66283554,-0.39243692,-9.834852,9.864971948828348
1127415.8292563602,0.67001426,-0.36850783,-9.88271,9.912248689045017
1127433.91462818,0.6101916,-0.28475606,-9.880318,9.90323702551551
1127452.0,0.6221561,-0.2368979,-9.86596,9.888395499240087
1127469.7438845402,0.6676214,-0.27039862,-9.885103,9.911311470640245
1127487.8292563602,0.8040171,-0.37090075,-9.832459,9.872247001069411
1127505.91462818,0.8542682,-0.3852582,-9.834852,9.879398357192732
1127524.0,0.8638398,-0.40679437,-9.877925,9.923966100564467
1127541.7438845402,0.75855184,-0.37568656,-9.851603,9.88790285929939
1127559.8292563602,0.75615895,-0.35415038,-9.858782,9.89407809615647
1127577.91462818,0.70830077,-0.2919348,-9.853995,9.883730741388021
1127596.0,0.71787244,-0.28954187,-9.846817,9.877194964466565
1127613.7438845402,0.7130866,-0.33500713,-9.870746,9.902138600967287
1127631.8292563602,0.7896597,-0.37568656,-9.86596,9.904638789717104
1127649.91462818,0.84708947,-0.5072965,-9.84921,9.898578076329807
1127668.0,0.83991075,-0.46422416,-9.779816,9.826787630377959
1127686.7438845402,0.72983694,-0.4115802,-9.868353,9.903860416657215
1127704.8292563602,0.72983694,-0.32064968,-9.86596,9.898113198881525
1127722.91462818,0.67001426,-0.28475606,-9.863567,9.890397316882627
1127741.0,0.68915755,-0.22971918,-9.844424,9.871190045894055
1127758.7438845402,0.7346228,-0.27518442,-9.856388,9.887556903999824
1127776.8292563602,0.7346228,-0.32064968,-9.856388,9.888926700209076
1127794.91462818,0.80162424,-0.37090075,-9.830067,9.869670005273486
1127813.0,0.82076746,-0.48576033,-9.844424,9.890515973060888
1127830.7438845402,0.7441944,-0.44747382,-9.851603,9.889799785343776
1127848.8292563602,0.75615895,-0.37329367,-9.806137,9.84232936781208
1127866.91462818,0.79205257,-0.35415038,-9.86596,9.90403637346399
1127885.0,0.7489802,-0.33022133,-9.873138,9.907011226087464
1127903.7438845402,0.78248096,-0.3517575,-9.863567,9.90080621742784
1127921.8292563602,0.6939433,-0.3254355,-9.870746,9.90045918959273
1127939.91462818,0.70112205,-0.37090075,-9.837245,9.869170617907654
1127958.0,0.7944455,-0.43790218,-9.822887,9.864685042437392
1127976.7438845402,0.8518753,-0.42354473,-9.784601,9.830742514899974
1127994.8292563602,0.87819725,-0.37568656,-9.834852,9.881127701997185
1128012.91462818,0.8614469,-0.3278284,-9.842031,9.885096682700032
1128031.0,0.81358874,-0.26082698,-9.877925,9.914805074078647
1128048.7438845402,0.79205257,-0.2967206,-9.853995,9.890227896673208
1128066.8292563602,0.7346228,-0.2991135,-9.818102,9.85008966591503
1128084.91462818,0.7202653,-0.39722276,-9.815709,9.850112242818714
1128103.0,0.7106937,-0.3828653,-9.84921,9.882237044174955
1128120.7438845402,0.7776951,-0.4139731,-9.815709,9.855167505870645
1128138.8292563602,0.7968384,-0.43072346,-9.844424,9.886008194740935
1128156.91462818,0.7872668,-0.39482984,-9.820495,9.859908805965786
1128175.0,0.81358874,-0.34457877,-9.820495,9.86016141914596
1128193.7438845402,0.8542682,-0.31586388,-9.897068,9.938888224788721
1128211.8292563602,0.77530223,-0.18903974,-9.897068,9.929188515068402
1128229.91462818,0.7418015,-0.22014755,-9.863567,9.893871253087047
1128248.0,0.7513731,-0.34457877,-9.794173,9.828993886358223
1128265.7438845402,0.70112205,-0.42354473,-9.748708,9.783060356379847
1128283.8292563602,0.7322299,-0.46183127,-9.818102,9.856194784540726
1128301.91462818,0.6532639,-0.37329367,-9.786994,9.815872525819662
1128320.0,0.7154795,-0.34218585,-9.82528,9.857237399457338
1128337.7438845402,0.8279462,-0.2656128,-9.86596,9.904201724077426
1128355.8292563602,0.84230363,-0.30389932,-9.877925,9.918428933426535
1128373.91462818,0.7705164,-0.31825677,-9.875532,9.910656647132106
1128392.0,0.703515,-0.3278284,-9.863567,9.894056740213317
1128409.7438845402,0.6532639,-0.41875893,-9.822887,9.853487797692093
1128427.8292563602,0.7226582,-0.4402951,-9.858782,9.89503295460077
1128445.91462818,0.77290934,-0.39961565,-9.810924,9.849432026739418
1128464.0,0.8159817,-0.33740005,-9.84921,9.888710864039604
1128482.7438845402,0.8231604,-0.30389932,-9.84921,9.888219529567728
1128500.8292563602,0.75855184,-0.31586388,-9.880318,9.914426592888772
1128518.91462818,0.7226582,-0.2967206,-9.84921,9.880142489488277
1128537.0,0.68915755,-0.27279153,-9.796566,9.82456404833913
1128554.7438845402,0.71787244,-0.37329367,-9.858782,9.891929615989875
1128572.8292563602,0.7705164,-0.39482984,-9.818102,9.856201753597954
1128590.91462818,0.7226582,-0.34457877,-9.813316,9.845919983354422
1128609.0,0.7872668,-0.33979294,-9.813316,9.850706531630719
1128626.7438845402,0.72983694,-0.2584341,-9.868353,9.898678754037855
1128644.8292563602,0.7322299,-0.22971918,-9.894675,9.924390403633812
1128662.91462818,0.7633377,-0.20339718,-9.887496,9.91900357934653
1128681.0,0.70112205,-0.24168372,-9.839638,9.86754574960528
1128698.7438845402,0.6748001,-0.3804724,-9.7917795,9.82237548654815
1128716.8292563602,0.72983694,-0.4402951,-9.789387,9.826424556767408
1128734.91462818,0.80880296,-0.45225963,-9.837245,9.880794006103836
1128753.0,0.8614469,-0.39961565,-9.875532,9.921084402033305
1128771.7438845402,0.7896597,-0.2919348,-9.88271,9.91850519550981
1128789.8292563602,0.8040171,-0.2919348,-9.877925,9.914891412928759
1128807.91462818,0.7154795,-0.28236315,-9.844424,9.874427768492419
1128826.0,0.6580497,-0.27518442,-9.84921,9.875003468190824
1128843.7438845402,0.7059079,-0.28714898,-9.818102,9.847633593021293
1128861.8292563602,0.7513731,-0.31586388,-9.923389,9.956805751415123
1128879.91462818,0.8351249,-0.33500713,-9.844424,9.885461408934175
1128898.0,0.7992313,-0.37807947,-9.80853,9.848298102587835
1128916.7438845402,0.7513731,-0.42354473,-9.870746,9.908359009958732
1128934.8292563602,0.61497736,-0.3326142,-9.842031,9.866833512546728
1128952.91462818,0.66044265,-0.2632199,-9.839638,9.865289918737261
1128971.0,0.6795859,-0.27757734,-9.875532,9.902778320157646
1128988.7438845402,0.7130866,-0.17228939,-9.846817,9.87410660082699
1129006.8292563602,0.7489802,-0.11485959,-9.873138,9.902172389554275
1129024.91462818,0.72744405,-0.2057901,-9.84921,9.878181109659733
1129043.0,0.63172776,-0.22971918,-9.851603,9.87450923003384
1129061.7438845402,0.66044265,-0.27997026,-9.837245,9.863364386985229
1129079.8292563602,0.69155043,-0.31107804,-9.818102,9.847341693401697
1129097.91462818,0.69155043,-0.28475606,-9.86596,9.894265750046332
1129116.0,0.6748001,-0.21536173,-9.842031,9.867487524931036
1129133.7438845402,0.8183746,-0.28236315,-9.830067,9.868114468270626
1129151.8292563602,0.9093051,-0.43311638,-9.853995,9.90533406925457
1129169.91462818,0.83991075,-0.37568656,-9.832459,9.875415963189155
1129188.0,0.84948236,-0.3254355,-9.861175,9.903045032980332
1129205.7438845402,0.8279462,-0.3565433,-9.842031,9.8832278249482
1129223.8292563602,0.8351249,-0.28475606,-9.894675,9.933937435273675
1129241.91462818,0.7202653,-0.19861138,-9.875532,9.903754887196754
1129260.0,0.6939433,-0.22014755,-9.846817,9.873693699871133
1129278.7438845402,0.63651353,-0.18664683,-9.837245,9.859582937581441
1129296.8292563602,0.6197632,-0.21057591,-9.798959,9.820796613392805
1129314.91462818,0.598227,-0.21536173,-9.830067,9.850607770222434
1129333.0,0.73701566,-0.234505,-9.858782,9.889073121462609
1129350.7438845402,0.7489802,-0.13878867,-9.8922825,9.921566745969038
1129368.8292563602,0.7968384,-0.16989647,-9.877925,9.911469041058345
1129386.91462818,0.75855184,-0.28954187,-9.827674,9.861156708963025
1129405.0,0.69633627,-0.23211208,-9.834852,9.862204321575549
1129422.7438845402,0.6580497,-0.19143265,-9.887496,9.911218543507761
1129440.8292563602,0.7872668,-0.33979294,-9.837245,9.87454492351324
1129458.91462818,0.859054,-0.3230426,-9.832459,9.87520026546357
1129477.0,0.94280577,-0.37807947,-9.818102,9.870509292229292
1129494.7438845402,0.8734115,-0.28475606,-9.844424,9.887194625059982
1129512.8292563602,0.7944455,-0.28475606,-9.837245,9.873379302761641
1129530.91462818,0.78008807,-0.2584341,-9.810924,9.845280865205174
1129549.0,0.72505116,-0.2584341,-9.870746,9.900712800863188
1129567.7438845402,0.7681235,-0.22493336,-9.798959,9.831592252090916
1129585.8292563602,0.7968384,-0.22254045,-9.928176,9.962587734849656
1129603.91462818,0.70112205,-0.21536173,-9.932961,9.960003365022816
1129622.0,0.7346228,-0.24886245,-9.858782,9.889245962196705
1129639.7438845402,0.7130866,-0.2967206,-9.839638,9.86990433512949
1129657.8292563602,0.61497736,-0.28954187,-9.784601,9.8081827255102
1129675.91462818,0.8231604,-0.27518442,-9.873138,9.91121453083238
1129694.0,0.78248096,-0.14357449,-9.904246,9.936145073188962
1129711.7438845402,0.8446966,-0.1459674,-9.870746,9.907898133531164
1129729.8292563602,0.7944455,-0.19861138,-9.844424,9.878424673221524
1129747.91462818,0.7226582,-0.28236315,-9.856388,9.886877577326887
1129766.0,0.7226582,-0.3565433,-9.801352,9.834422150116708
1129783.7438845402,0.69633627,-0.3852582,-9.813316,9.84553091496039
1129801.8292563602,0.7346228,-0.31107804,-9.830067,9.862385990709301
1129819.91462818,0.78248096,-0.2632199,-9.923389,9.957670933197157
1129838.0,0.81358874,-0.22493336,-9.889889,9.925846366260998
1129856.7438845402,0.7872668,-0.20339718,-9.84921,9.882717088499204
1129874.8292563602,0.7441944,-0.16511066,-9.861175,9.890594482419244
1129892.91462818,0.7130866,-0.19861138,-9.856388,9.884145050833132
1129911.0,0.70112205,-0.208183,-9.86596,9.893031841254995
1129929.7438845402,0.7513731,-0.28954187,-9.844424,9.877301246882304
1129947.8292563602,0.7489802,-0.28475606,-9.82528,9.857899595354922
1129965.91462818,0.7322299,-0.28954187,-9.763065,9.794765607974604
1129984.0,0.72505116,-0.25604117,-9.856388,9.886336059020872
1130001.7438845402,0.78008807,-0.27997026,-9.856388,9.891173092711744
1130019.8292563602,0.8040171,-0.22254045,-9.86596,9.901168338664817
1130037.91462818,0.7609448,-0.15075321,-9.909033,9.939351010707961
1130056.0,0.7418015,-0.16750357,-9.856388,9.885682137207782
1130073.7438845402,0.73701566,-0.21057591,-9.815709,9.845591778539193
1130091.8292563602,0.75615895,-0.37090075,-9.834852,9.870848878689191
1130109.91462818,0.7681235,-0.34697166,-9.846817,9.882823891762131
1130128.0,0.77290934,-0.31586388,-9.830067,9.86546380374673
1130146.7438845402,0.7513731,-0.28714898,-9.851603,9.884386563754356
1130164.8292563602,0.7657306,-0.2057901,-9.887496,9.91923737325861
1130182.91462818,0.7705164,-0.21296883,-9.877925,9.910219651997906
1130201.0,0.78008807,-0.15314612,-9.863567,9.89555178322646
1130218.7438845402,0.7130866,-0.19621846,-9.877925,9.905574011069188
1130236.8292563602,0.7322299,-0.30629224,-9.810924,9.842977460937021
1130254.91462818,0.78487384,-0.33500713,-9.820495,9.857503678259125
1130273.0,0.8183746,-0.3254355,-9.818102,9.857523630861323
1130290.7438845402,0.74658734,-0.31107804,-9.801352,9.834666401618437
1130308.8292563602,0.78487384,-0.27279153,-9.820495,9.855585432057351
1130326.91462818,0.7202653,-0.18903974,-9.875532,9.903567559657851
1130345.0,0.7154795,-0.17228939,-9.868353,9.895755932794414
1130362.7438845402,0.6795859,-0.18903974,-9.8922825,9.917400167311206
1130380.8292563602,0.64369226,-0.22254045,-9.839638,9.863181025841213
1130398.91462818,0.72505116,-0.36611494,-9.832459,9.865951009435916
1130417.0,0.8040171,-0.36372203,-9.815709,9.85529707238096
1130435.7438845402,0.7705164,-0.33500713,-9.856388,9.892133728693917
1130453.8292563602,0.83751786,-0.30868515,-9.832459,9.872890796232404
1130471.91462818,0.7896597,-0.16750357,-9.930569,9.963323770285088
1130490.0,0.8159817,-0.18903974,-9.894675,9.930063218009195
1130507.7438845402,0.72505116,-0.110073775,-9.863567,9.890792151493686
1130525.8292563602,0.6867646,-0.16989647,-9.837245,9.862651753780856
1130543.91462818,0.64129937,-0.19621846,-9.775029,9.798007885118697
1130562.0,0.7226582,-0.27518442,-9.830067,9.860435008838452
1130579.7438845402,0.78487384,-0.3565433,-9.782208,9.820119318254502
1130597.8292563602,0.8446966,-0.3278284,-9.8922825,9.933692005780348
1130615.91462818,0.72744405,-0.27279153,-9.861175,9.891732024541765
1130634.0,0.7513731,-0.22254045,-9.853995,9.885105120701287
1130652.7438845402,0.6843717,-0.12921704,-9.858782,9.88335187022658
1130670.8292563602,0.6867646,-0.1172525,-9.851603,9.876207543089524
1130688.91462818,0.72505116,-0.21057591,-9.858782,9.887650070770793
1130707.0,0.72744405,-0.22971918,-9.827674,9.857237036706396
1130724.7438845402,0.7130866,-0.31825677,-9.801352,9.832409719832386
1130742.8292563602,0.7944455,-0.31107804,-9.822887,9.859869279772907
1130760.91462818,0.7418015,-0.25364825,-9.853995,9.885131479153694
1130779.0,0.7154795,-0.19143265,-9.875532,9.903266615487551
1130796.7438845402,0.73701566,-0.16032484,-9.870746,9.899521338626544
1130814.8292563602,0.6748001,-0.13400285,-9.88271,9.906627523171956
1130832.91462818,0.69872916,-0.17707519,-9.932961,9.959080895819094
1130851.0,0.7681235,-0.22493336,-9.827674,9.860212217694361
1130869.7438845402,0.7609448,-0.30150643,-9.806137,9.840237089559752
