timestamp,accel_x,accel_y,accel_z,magnitude
1236164.8997763249,-0.4977249,-4.730779,12.90256,13.751510992488098
1236166.0569511356,7.9875274,-6.84611,13.658719,17.24037182948244
1236167.2141259464,10.222504,-6.1114874,8.77958,14.796313434324604
1236168.3713007572,2.6513422,-1.4548881,6.4464946,7.120646562837648
1236169.5284755677,-5.9439836,2.9815636,7.9827414,10.389649791845146
1236170.6856503785,-6.8365383,0.21296883,10.349327,12.40532873417095
1236171.8428251892,0.9093051,-5.0131426,13.84058,14.748562276683812
1236173.0,8.767615,-6.403422,12.589089,16.624080363984948
1236173.8997763249,10.2847185,-5.649656,7.1212945,13.726138674015665
1236175.0569511356,2.526911,-0.9786994,5.340971,5.989081978093333
1236176.2141259464,-5.6329055,2.2541194,8.545074,10.479931693807103
1236177.3713007572,-5.1950035,-1.6271775,11.497924,12.721557463270544
1236178.5284755677,2.3354783,-6.2909555,15.381613,16.781674483630056
1236179.6856503785,7.815238,-6.2885623,12.172724,15.773369024333428
1236180.8428251892,6.3148847,-3.8693323,6.2670264,9.701810198123562
1236182.0,-1.3448143,1.0576653,3.8956544,4.254797832159355
1236183.8997763249,-7.7769513,2.9265265,7.3270845,11.078433831003109
1236185.0569511356,-5.130395,-2.0028641,10.634084,11.9756486245276
1236186.2141259464,3.7305436,-7.0973654,15.238039,17.21880901044376
1236187.3713007572,9.899461,-7.4874096,11.581676,16.976332041335347
1236188.5284755677,7.425194,-4.891104,6.642713,11.098740481551093
1236189.6856503785,-1.3472073,0.56711924,5.4055796,5.599721649643635
1236190.8428251892,-7.786523,2.1536174,8.506788,11.731728364229022
1236192.0,-4.1780176,-2.5077677,11.524245,12.512112240668962
1236192.8997763249,5.1184306,-6.774323,14.831244,17.089633773222918
1236194.0569511356,11.320848,-7.274441,9.408915,16.41970684204837
1236195.2141259464,8.121531,-4.474738,4.9892135,10.529710219240947
1236196.3713007572,-1.0815945,0.8040171,5.223718,5.394767826611879
1236197.5284755677,-6.767144,0.832732,10.339756,12.385404096762285
1236198.6856503785,-2.8236315,-3.8980472,14.110979,14.909305656524085
1236199.8428251892,5.056215,-6.6211767,16.010948,18.04870485318966
1236201.0,8.621648,-5.802802,9.112194,13.821628152310566
1236201.8997763249,3.7544727,-1.952613,3.95787,5.794264208656203
1236203.0569511356,-4.529775,2.7518444,4.2665553,6.804043156858608
1236204.2141259464,-7.7984877,0.9284483,9.140909,12.05133370208896
1236205.3713007572,-2.0244002,-4.816924,14.032013,14.973254216225177
1236206.5284755677,6.9083257,-8.001884,15.594582,18.840013250564887
1236207.6856503785,10.404365,-7.2457256,8.5546465,15.294879118962745
1236208.8428251892,3.9100118,-2.6321988,4.5895977,6.578834991600409
1236210.0,-5.2452545,2.495803,5.8123736,8.217384879057096
1236210.8997763249,-7.805666,0.61497736,10.614941,13.190283973074635
1236212.0569511356,-0.64129937,-4.773852,15.355291,16.093038541386377
1236213.2141259464,8.633613,-7.4275866,14.187552,18.193266553507442
1236214.3713007572,11.698928,-6.7838945,6.4153867,14.968076945514781
1236215.5284755677,4.3622713,-2.0363648,3.441002,5.917489945702209
1236216.6856503785,-4.936569,2.1584032,6.606819,8.525167163422207
1236217.8428251892,-6.5661397,-0.7226582,12.345013,14.001277491861673
1236219.0,0.39722276,-5.6305127,17.415585,18.307459137688888
1236220.8997763249,7.70995,-6.6235695,14.041585,17.334390996976364
1236222.0569511356,8.616862,-4.7834234,5.510867,11.291638731486257
1236223.2141259464,1.2323477,0.30389932,2.6441634,2.9330250146037478
1236224.3713007572,-6.669035,3.0772798,6.6762137,9.925598630147238
1236225.5284755677,-5.90809,-1.2490981,11.751572,13.212313120067494
1236226.6856503785,2.3594074,-6.812609,16.896324,18.370198947725953
1236227.8428251892,9.705635,-7.9635983,12.500552,17.716716652407463
1236229.0,8.652756,-5.3768644,5.281148,11.474815090859956
1236229.8997763249,-0.16271774,0.4139731,3.4242516,3.453020389533904
1236231.0569511356,-7.997099,3.0318146,8.272284,11.898578686600773
1236232.2141259464,-6.046879,-1.1725249,13.4529295,14.795974872029596
1236233.3713007572,3.2639267,-6.350778,17.473015,18.87569473949189
1236234.5284755677,11.117451,-7.4945884,10.679549,17.141159204272522
1236235.6856503785,9.420879,-5.0394645,3.9219763,11.381171366654794
1236236.8428251892,0.0598227,0.5288327,3.515182,3.555242224258226
1236238.0,-7.367764,1.8210031,9.688885,12.307497357023102
1236239.8997763249,-5.0873227,-2.4910173,14.922174,15.961118266873113
1236241.0569511356,3.1873536,-6.403422,17.97074,19.34193714262139
1236242.2141259464,9.155267,-6.350778,9.669742,14.753142221002854
1236243.3713007572,6.010985,-2.9719918,2.7039862,7.230229408482326
1236244.5284755677,-2.5915194,2.1249025,2.3522286,4.094406284400777
1236245.6856503785,-7.829595,1.4668527,9.509417,12.404967810817217
1236246.8428251892,-4.1493025,-3.5726118,15.312219,16.26174397209495
1236248.0,4.527382,-7.757808,17.470621,19.644423403715088
1236248.8997763249,9.535739,-7.1452236,8.980584,14.920972741452681
1236250.0569511356,4.611134,-2.9743848,3.204104,6.354195790754566
1236251.2141259464,-4.194768,2.3115492,3.5008245,5.932546709267858
1236252.3713007572,-8.080851,1.2849916,10.019106,12.935758243547516
1236253.5284755677,-2.8044882,-3.7855806,15.601761,16.29756794261514
1236254.6856503785,6.867646,-7.887025,16.465601,19.506043710172033
1236255.8428251892,12.213403,-7.7697725,7.44673,16.27852466395727
1236257.0,6.369921,-3.3883579,2.3785505,7.596997122928483
1236257.8997763249,-3.125138,1.4429235,4.532168,5.691138948059541
1236259.0569511356,-7.085401,-0.1196454,12.167937,14.081048014565932
1236260.2141259464,-2.3881223,-4.2833056,17.965954,18.62324724941557
1236261.3713007572,5.652049,-6.58289,15.984626,18.18758826811232
1236262.5284755677,9.152873,-5.2643976,6.0373073,12.162978487181832
1236263.6856503785,3.2974274,-0.6795859,1.2897775,3.6053280645810615
1236264.8428251892,-4.867175,2.7949166,4.4651666,7.17207529571017
1236266.0,-6.3651357,-0.6197632,11.65107,13.290842375424846
1236266.8997763249,-0.6652284,-5.747765,18.049706,18.954451139661828
1236268.0569511356,7.4778376,-8.214853,15.137537,18.776232087667424
1236269.2141259464,9.140909,-6.1617384,5.826731,12.468922631994978
1236270.3713007572,1.6941789,-0.77290934,1.6032485,2.4572416946276765
1236271.5284755677,-6.5206747,2.7279153,5.5324035,8.97597955178188
1236272.6856503785,-7.032757,-0.6843717,13.1107435,14.89361040069204
1236273.8428251892,-0.08614469,-5.6616206,18.095171,18.96039509728636
1236275.0,8.963834,-8.262712,13.22321,17.985438895912438
1236276.8997763249,10.138752,-6.3483853,3.9171906,12.587321805351943
1236278.0569511356,1.9095407,-1.0433079,1.8018597,2.825161134810365
1236279.2141259464,-6.539818,1.7228938,7.4036574,10.02754832527758
1236280.3713007572,-6.8365383,-1.6630712,14.579989,16.188889430215937
1236281.5284755677,-0.22971918,-5.754944,19.351448,20.190361340042923
1236282.6856503785,8.143066,-7.193082,11.820966,16.055690259600674
1236283.8428251892,8.365606,-4.529775,2.7973096,9.916005561520887
1236285.0,0.50968945,0.5647263,0.89734054,1.1764009410402918
1236285.8997763249,-6.4441013,1.3519931,7.8774533,10.266868919041977
1236287.0569511356,-5.546761,-2.8906329,14.809709,16.076373870321763
1236288.2141259464,1.5529974,-7.348621,18.478037,19.946224778123224
1236289.3713007572,8.600112,-7.7937016,10.215324,15.461453860079347
1236290.5284755677,6.43453,-4.087087,2.9791706,8.184309007507803
1236291.6856503785,-1.7922882,1.354386,2.1942968,3.140317957682865
1236292.8428251892,-7.5352674,1.4931747,9.578811,12.27857669471278
1236294.0,-4.816924,-2.9815636,15.649619,16.643408700376913
1236294.8997763249,3.8190813,-7.707557,17.796057,19.76591666560162
1236296.0569511356,11.395028,-8.265104,7.7817373,16.084590223496875
1236297.2141259464,7.8942037,-4.3598785,1.9645776,9.229656425798183
1236298.3713007572,-1.4931747,1.0074143,3.1801748,3.6548551291562323
1236299.5284755677,-7.623805,0.7872668,11.794644,14.066123089861799
1236300.6856503785,-5.077751,-2.938491,17.561552,18.51557164183126
1236301.8428251892,3.412287,-6.642713,17.233725,18.78218879540835
1236303.0,10.2344675,-6.396243,6.0755935,13.511812828071868
1236303.8997763249,6.109094,-2.3354783,0.93084127,6.60620570831261
1236305.0569511356,-2.658521,1.9573988,3.381179,4.725623281613066
1236306.2141259464,-7.0160065,-0.21296883,12.356977,14.211424401133154
1236307.3713007572,-3.9171906,-4.611134,17.676413,18.68321480659186
1236308.5284755677,4.194768,-8.023421,15.582618,18.021912963139872
1236309.6856503785,8.513967,-6.5254602,5.333792,11.97992495795099
1236310.8428251892,2.7183435,-1.4357449,1.251491,3.319184316206206
1236312.0,-5.666406,2.708772,4.580026,7.773174439409939
1236312.8997763249,-8.243568,-0.16271774,13.287819,15.638063313924
1236314.0569511356,-3.1801748,-4.8767467,17.8152,18.74239902399146
1236315.2141259464,6.594855,-8.667113,13.8956175,17.655003424867985
1236316.3713007572,10.732193,-7.205046,3.876511,13.495184029293043
1236317.5284755677,3.6396132,-1.9837208,1.3711363,4.365998993488726
1236318.6856503785,-5.4821525,1.7875023,6.384279,8.602800640233536
1236319.8428251892,-8.078458,-0.66044265,15.020284,17.067706336598338
1236321.0,-2.8212388,-4.5776334,18.937475,19.68608836938019
1236322.8997763249,6.893968,-7.44673,12.574732,16.158727281247987
1236324.0569511356,9.88271,-5.4797597,2.8930259,11.664704118489885
1236325.2141259464,2.730308,-0.5551547,0.6652284,2.8644907645099242
1236326.3713007572,-5.3457565,1.3735292,7.061472,8.962593476629904
1236327.5284755677,-6.767144,-2.2421548,15.65919,17.205572571698944
1236328.6856503785,-1.380708,-6.3292418,18.549824,19.64845100192652
1236329.8428251892,7.150009,-8.021028,11.00977,15.384230703215712
1236331.0,7.473052,-4.5106316,2.6872358,9.133101328159247
1236331.8997763249,0.15553902,0.7776951,1.0433079,1.3105317354070372
1236333.0569511356,-6.5206747,1.6965718,8.379964,10.752736910064865
1236334.2141259464,-5.936805,-2.4024796,16.44885,17.65169193473932
1236335.3713007572,0.83991075,-6.982506,18.200459,19.511984725257513
1236336.5284755677,9.834852,-8.683864,8.837009,15.818550372852785
1236337.6856503785,8.317748,-5.0394645,1.7659662,9.884319443330769
1236338.8428251892,-0.47618872,0.27518442,2.134474,2.2041917835664786
1236340.0,-7.681235,0.9164838,10.646049,13.15977480777268
1236340.8997763249,-6.824574,-2.4072654,17.635733,19.062759911272085
1236342.0569511356,0.93323416,-6.3986363,17.382084,18.545897570086073
1236343.2141259464,10.131573,-7.3773355,7.10933,14.408900845754657
1236344.3713007572,8.17896,-3.697043,1.0696299,9.039226833552913
1236345.5284755677,-0.17468229,0.6532639,2.5388756,2.6273859514274283
1236346.6856503785,-5.963127,-0.6748001,12.19426,13.590960810063761
1236347.8428251892,-4.9533195,-4.3096275,18.523502,19.652694207203258
1236349.0,2.1153307,-7.910954,16.245453,18.19265127285431
1236349.8997763249,8.389536,-7.037543,5.5515466,12.277255207256896
1236351.0569511356,4.2354474,-2.1488314,0.5886554,4.785708541453594
1236352.2141259464,-3.7281508,1.9358627,3.2328188,5.300734871168843
1236353.3713007572,-7.6692705,-0.42593765,13.256711,15.321211421469869
1236354.5284755677,-4.8001738,-4.630277,18.523502,19.687591522350807
1236355.6856503785,4.2330546,-8.817866,14.529737,17.515329552415114
1236356.8428251892,10.282326,-7.808059,4.1493025,13.56129509133487
1236358.0,4.2904844,-2.8762755,1.2203832,5.30759383274435
1236359.8997763249,-4.7212076,1.0552725,5.5324035,7.349210143843096
1236361.0569511356,-8.592933,-0.9451987,14.723563,17.07381637302978
1236362.2141259464,-4.7499228,-4.551311,18.355997,19.49920060640153
1236363.3713007572,5.2978983,-8.279462,12.452694,15.864640092489426
1236364.5284755677,10.5766535,-6.692964,2.7207365,12.808738168406384
1236365.6856503785,4.3646646,-1.926291,0.7322299,4.82670226071882
1236366.8428251892,-3.874118,0.18903974,6.932255,7.943594003110196
1236368.0,-6.99447,-2.8451676,17.054256,18.6511457279848
1236368.8997763249,-3.2208543,-6.3148847,18.367962,19.688415355979426
1236370.0569511356,5.989449,-8.990156,10.363685,14.970049131755113
1236371.2141259464,7.7697725,-5.43908,1.8042527,9.654443730925854
1236372.3713007572,0.81119585,-0.13878867,0.5695121,1.0008221790228278
1236373.5284755677,-6.2383113,1.0600582,8.545074,10.63289898986024
1236374.6856503785,-7.2265825,-2.8188457,17.1069,18.783381306881747
1236375.8428251892,-1.5434257,-7.207439,17.487371,18.977288645161682
1236377.0,8.770008,-9.846817,8.013849,15.43031500476753
1236377.8997763249,8.420644,-6.0492716,1.3256711,10.452671243786336
1236379.0569511356,-0.2991135,-0.54558307,2.1990826,2.2854089467260854
1236380.2141259464,-8.037778,0.57908374,10.96909,13.611103870859129
1236381.3713007572,-8.518753,-2.392908,17.953989,20.016015647066077
1236382.5284755677,-1.0744157,-6.6594634,16.042055,17.402596084934313
1236383.6856503785,9.853995,-8.674292,5.7956233,14.35039402235325
1236384.8428251892,8.303391,-4.661385,0.8614469,9.56121869735368
1236386.0,-0.5264398,-0.105287954,3.1107805,3.156767291939936
1236386.8997763249,-7.341442,-0.93323416,13.383535,15.293354953475053
1236388.0569511356,-7.4945884,-4.0535865,19.023619,20.84462757296368
1236389.2141259464,0.21536173,-8.157424,14.302412,16.466600620901346
1236390.3713007572,8.643184,-8.099994,3.7592585,12.427652913069075
1236391.5284755677,4.824103,-2.8547394,-0.057429794,5.605783172560302
1236392.6856503785,-3.5295393,1.3400285,3.6252558,5.234100081818305
1236393.8428251892,-8.391929,-0.78487384,14.635026,16.888590388378578
1236395.0,-6.4656377,-4.843246,19.629025,21.226401605896424
1236396.8997763249,3.3763933,-9.724778,12.81163,16.434999303999646
1236398.0569511356,10.356506,-8.832224,2.9097762,13.918771312450623
1236399.2141259464,3.7640445,-3.1610315,0.78248096,4.977190733208345
1236400.3713007572,-5.728622,1.0169859,5.549154,8.040179130802919
1236401.5284755677,-10.65562,-0.51926106,16.149736,19.355253615040244
1236402.6856503785,-7.080615,-4.1469097,18.150208,19.91888599499086
1236403.8428251892,5.056215,-9.205518,10.954733,15.176068228491792
1236405.0,11.289741,-7.6692705,1.8305746,13.77051071004327
1236405.8997763249,4.419701,-2.524518,0.8877689,5.16672833440391
1236407.0569511356,-4.6207056,-0.055036888,7.7434506,9.017481715842425
1236408.2141259464,-9.0069065,-2.4814458,18.475643,20.703413298814496
1236409.3713007572,-5.0921082,-6.1354165,17.908524,19.60326843685908
1236410.5284755677,6.3866715,-9.932961,8.676684,14.653945963879124
1236411.6856503785,8.746079,-6.0564504,0.68915755,10.660648547373803
1236412.8428251892,1.1390243,-0.39004403,0.13639577,1.2116577517612075
1236414.0,-6.661856,0.96434194,8.863332,11.129642172334336
1236414.8997763249,-8.956655,-2.445552,19.191122,21.319042121835892
1236416.0569511356,-3.0581365,-7.161974,17.226545,18.905023752070065
1236417.2141259464,9.181588,-10.725014,7.238547,15.865813757042183
1236418.3713007572,8.513967,-6.197632,0.9164838,10.570630020967313
1236419.5284755677,-0.81119585,-0.46422416,2.0746512,2.2754604763533837
1236420.6856503785,-9.28209,0.95955616,11.110272,14.509172502464706
1236421.8428251892,-10.559903,-1.8736471,18.968582,21.79057612628614
1236423.0,-1.8545038,-6.956184,15.116,16.742793559799704
1236423.8997763249,11.225132,-9.868353,5.173467,15.816217630967337
1236425.0569511356,9.179195,-5.2380757,0.78248096,10.597515479569633
1236426.2141259464,-0.39482984,-0.2919348,3.1490672,3.187121077104117
1236427.3713007572,-8.379964,-0.39004403,14.113372,16.418379950440258
1236428.5284755677,-9.365842,-3.2232473,19.64099,21.99719999695464
1236429.6856503785,-0.06460852,-8.25314,13.263889,15.622075583122033
1236430.8428251892,10.050214,-8.698221,3.0629225,13.639917311026606
1236432.0,5.6568346,-3.125138,0.17946811,6.465173935271048
1236433.8997763249,-3.3428926,1.0768087,4.0296574,5.345333167624372
1236435.0569511356,-9.294055,-0.73701566,16.130594,18.631122167463403
1236436.2141259464,-7.78413,-4.5848117,19.152836,21.176503607164545
1236437.3713007572,3.7018287,-10.325398,11.354349,15.787293016738134
1236438.5284755677,10.84466,-9.119372,2.3570144,14.364021479787315
1236439.6856503785,3.5103962,-2.9313123,0.9164838,4.664270129052151
1236440.8428251892,-6.4177794,1.3376356,6.4704237,9.21105554662295
1236442.0,-12.060257,-0.07418015,17.350977,21.130823563108752
1236442.8997763249,-8.293819,-4.22109,17.762556,20.052766144499792
1236444.0569511356,6.1282377,-10.291898,8.808294,14.868238124960914
1236445.2141259464,12.412014,-8.61447,1.2203832,15.157721467025915
1236446.3713007572,4.1301594,-2.7494514,1.222776,5.1100764002651
1236447.5284755677,-6.008592,0.30868515,8.676684,10.558565697108225
1236448.6856503785,-11.794644,-1.3735292,19.662525,22.96987372463361
1236449.8428251892,-7.236154,-5.522832,17.29594,19.545156394757758
1236451.0,6.513496,-10.062179,7.049507,13.905704775850307
1236451.8997763249,8.667113,-6.1784887,0.59583414,10.660562306613391
1236453.0569511356,0.088537596,-0.43550926,1.2825987,1.3574117454526822
1236454.2141259464,-8.57379,0.8877689,10.265575,13.40447830631734
1236455.3713007572,-11.5314245,-2.1272953,19.399305,22.667866480452616
1236456.5284755677,-4.23784,-7.523303,15.374434,17.633280940192755
1236457.6856503785,9.650599,-11.25624,5.6185484,15.855758768332205
1236458.8428251892,8.097601,-6.092344,1.0337363,10.186088950498846
1236460.0,-1.9286839,-0.026321989,3.0892444,3.6419699883655667
1236460.8997763249,-10.7298,1.117488,13.015027,16.904683235153296
1236462.0569511356,-12.048292,-1.7803236,19.796528,23.24292178476632
1236463.2141259464,-1.4022441,-7.9324903,12.916918,15.222925523509039
1236464.3713007572,12.768558,-10.971483,3.0389934,17.10686977514871
1236465.5284755677,9.346699,-5.6616206,0.071787246,10.927940493232638
1236466.6856503785,-1.2538838,-0.27279153,3.6611493,3.8795172379605005
1236467.8428251892,-10.33497,0.35893622,15.893696,18.961804045273325
1236469.0,-11.476387,-2.5388756,21.366276,24.385879069539822
1236470.8997763249,-0.004785816,-8.523539,12.983919,15.53167385013981
1236472.0569511356,11.036092,-9.1983385,2.4264088,14.570251111692059
1236473.2141259464,5.3194346,-3.3668218,0.35893622,6.30560930494907
1236474.3713007572,-4.8647823,1.1007377,4.6446347,6.81545022775742
1236475.5284755677,-12.232546,0.011964541,16.056414,20.185236073223255
1236476.6856503785,-10.6364765,-3.9961565,18.030563,21.312088147446122
1236477.8428251892,2.9360983,-10.480937,9.834852,14.669527173264171
1236479.0,10.521617,-8.968619,2.1296883,13.988428193224816
1236479.8997763249,2.8260245,-2.495803,1.14381,3.940018833141442
1236481.0569511356,-7.032757,1.5194967,7.362978,10.294755279793876
1236482.2141259464,-12.861881,0.35415038,18.695791,22.69550630555521
1236483.3713007572,-8.219639,-4.5919905,17.434729,19.81460616176492
1236484.5284755677,7.968384,-11.397421,7.9372764,16.012392253273525
1236485.6856503785,13.01742,-8.971012,1.2395264,15.857764831679178
1236486.8428251892,3.5175748,-2.5819478,1.5290682,4.623617250137722
1236488.0,-7.3318706,0.9499845,9.224661,11.821724392418629
1236489.8997763249,-13.69222,-0.13878867,20.509615,24.660504014953656
1236491.0569511356,-7.9875274,-4.9581056,16.58046,19.060300598838992
1236492.2141259464,8.102386,-10.421115,6.2981343,14.625826212459161
1236493.3713007572,9.729565,-6.2598476,0.59583414,11.584694445121988
1236494.5284755677,0.2656128,-0.37329367,1.3759222,1.4501931678361848
1236495.6856503785,-9.308413,1.433352,11.00977,14.488481148394161
1236496.8428251892,-13.036563,-1.1557746,20.009497,23.909574650586805
1236498.0,-4.376629,-7.4658732,14.910211,17.239737124058482
1236498.8997763249,10.629298,-11.49553,5.43908,16.574461596085225
1236500.0569511356,7.7769513,-5.831517,1.7348584,9.874071891165835
1236501.2141259464,-2.8284173,0.42833054,3.275891,4.349123281572618
1236502.3713007572,-11.883182,1.8927903,13.426607,18.029599138565093
1236503.5284755677,-12.936061,-1.0504867,18.31532,22.447631126802623
1236504.6856503785,-0.36850783,-8.348856,11.191631,13.967526587397938
1236505.8428251892,13.89801,-11.23231,3.2471762,18.16214808798911
1236507.0,8.817866,-5.3816504,1.5673548,10.448613443460294
1236507.8997763249,-2.495803,0.24407662,5.2524333,5.820366103793516
1236509.0569511356,-11.976505,1.2395264,16.99204,20.825525709400996
1236510.2141259464,-11.81618,-1.9885067,19.777386,23.124040859705744
1236511.3713007572,2.5891266,-9.207911,10.650834,14.31535771227197
1236512.5284755677,13.462501,-9.504631,2.108152,16.613887217513728
1236513.6856503785,6.250276,-2.988742,0.3230426,6.9356243655603755
1236514.8428251892,-4.711636,1.6319634,5.072965,7.113212511000959
1236516.0,-13.163387,1.2634555,17.434729,21.8824325068236
1236516.8997763249,-10.966698,-3.412287,18.396677,21.687551550045985
1236518.0569511356,5.0945015,-10.964305,9.619491,15.450065914603996
1236519.2141259464,11.438101,-8.904011,2.7374868,14.751454177622499
1236520.3713007572,2.0459363,-1.770752,1.720501,3.206484317779005
1236521.5284755677,-8.612076,2.6010911,7.2481184,11.552867534975626
1236522.6856503785,-14.9915695,1.9047549,18.320105,23.74871563923888
1236523.8428251892,-8.841795,-3.7855806,16.025305,18.690060450521457
1236525.0,9.703242,-11.399815,7.2529044,16.634701968485288
1236525.8997763249,12.936061,-8.403893,2.5340896,15.632936443675518
1236527.0569511356,2.0770442,-1.6678569,2.8284173,3.8853318610603313
1236528.2141259464,-9.081086,1.797074,10.107644,13.706205351285528
1236529.3713007572,-14.831244,0.8638398,20.01189,24.923638561809152
1236530.5284755677,-6.257455,-5.173467,14.692455,16.786564204867506
1236531.6856503785,12.053078,-11.292133,5.4007936,17.3769251731592
1236532.8428251892,12.261261,-6.64032,1.4118158,14.015191574347126
1236534.0,1.4620669,-0.25364825,2.1488314,2.61140832510537
1236534.8997763249,-8.753258,1.8042527,12.012399,14.972394035531602
1236536.0569511356,-12.512516,-0.6580497,20.313396,23.866925715532407
1236537.2141259464,-2.110545,-7.7889156,14.259339,16.384454679294926
1236538.3713007572,12.644126,-11.435708,5.6855497,17.97150008085886
1236539.5284755677,7.5137315,-5.0657864,2.8906329,9.51178802681597
1236540.6856503785,-3.8597608,1.3208853,3.7975452,5.57349450120979
1236541.8428251892,-13.105958,2.943277,13.505573,19.048084330315792
1236543.0,-13.811866,-0.06221561,18.023384,22.70713288804951
1236543.8997763249,0.7346228,-8.004277,10.461794,13.193076011660239
1236545.0569511356,14.304805,-10.323006,3.7975452,18.044756814933915
1236546.2141259464,7.6644845,-4.065551,2.5340896,9.038508598500608
1236547.3713007572,-3.7257578,1.2993491,5.654442,6.895091993533926
1236548.5284755677,-12.9097395,2.500589,16.281347,20.928367815938017
1236549.6856503785,-11.485959,-1.354386,18.609646,21.91074028489209
1236550.8428251892,5.003571,-9.375414,10.406757,14.873960524368956
1236552.0,15.185394,-9.480701,3.7688303,18.29436974090212
1236553.8997763249,6.5972476,-2.8547394,2.421623,7.58534579908834
1236555.0569511356,-4.663778,1.5386399,6.1808815,7.894398906325817
1236556.2141259464,-13.158602,1.6104271,17.01597,21.570477905686708
1236557.3713007572,-10.052607,-3.1179593,16.142557,19.27067005039406
1236558.5284755677,6.2335258,-10.141145,8.444572,14.594877939656593
1236559.6856503785,10.105251,-7.0949726,4.0607653,12.997867086158248
1236560.8428251892,0.32064968,-0.3613291,3.8166883,3.8471397836766736
1236562.0,-9.164838,3.01985,8.810688,13.066827182682411
1236562.8997763249,-13.941083,1.8042527,17.540016,22.478017801812562
1236564.0569511356,-6.2885623,-4.3909864,13.960226,15.928423881132819
1236565.2141259464,11.787465,-11.220346,6.743215,17.61565905727532
1236566.3713007572,12.505338,-7.1835103,4.1253734,15.00016681286837
1236567.5284755677,1.2802058,-0.650871,4.730779,4.9439690427667164
1236568.6856503785,-9.169623,2.3043704,11.296919,14.731343719942393
1236569.8428251892,-13.682649,1.093559,18.329676,22.899514781074686
1236571.0,-3.9506912,-5.460616,12.562767,14.256556483018697
1236572.8997763249,12.914525,-10.452223,5.3505425,17.454576095157975
1236574.0569511356,10.58144,-5.3577213,3.6778998,12.417688872769915
1236575.2141259464,-0.4402951,0.3804724,4.8049593,4.840067447557137
1236576.3713007572,-10.136358,2.1033661,13.036563,16.646978023285854
1236577.5284755677,-12.725485,-0.48815325,17.882202,21.95334622442589
1236578.6856503785,-1.0169859,-7.580733,11.732429,14.005415501802466
1236579.8428251892,11.165309,-9.203125,5.8123736,15.593117767049762
1236581.0,4.714029,-2.895419,4.922212,7.404977486214661
1236581.8997763249,-5.436687,2.084223,6.2885623,8.570155590809264
1236583.0569511356,-12.835559,2.7015932,13.919546,19.126001712508636
1236584.2141259464,-11.217953,-1.2419193,14.903031,18.6945223540181
1236585.3713007572,4.398165,-9.112194,8.016242,12.908759454859519
1236586.5284755677,14.065514,-9.179195,4.4675593,17.379740821750982
1236587.6856503785,5.2739697,-2.5699832,5.568297,8.088603187510767
1236588.8428251892,-5.4797597,1.902362,8.710185,10.464897050760369
1236590.0,-12.976741,2.3857293,16.93461,21.467848684161613
1236590.8997763249,-9.2988405,-2.2541194,15.001141,17.792799673344767
1236592.0569511356,7.7697725,-9.748708,7.7506294,14.679200539101734
1236593.2141259464,13.218424,-7.6620917,4.5225964,15.933871483737965
1236594.3713007572,3.3428926,-1.3902797,4.8767467,6.073752296178017
1236595.5284755677,-6.898754,1.9095407,9.207911,11.662966064487776
1236596.6856503785,-13.467287,1.354386,16.67139,21.474110577843845
1236597.8428251892,-7.8200235,-4.170839,13.457715,16.11393057344167
1236599.0,7.865489,-9.648206,7.0901866,14.3256602727545
1236599.8997763249,7.5879116,-5.029893,5.659228,10.719285778299204
1236601.0569511356,-2.4096584,0.9739136,6.1306305,6.658798062149487
1236602.2141259464,-10.684335,3.0389934,10.442651,15.245965210024243
1236603.3713007572,-13.35482,0.7059079,15.063356,20.143341757971005
1236604.5284755677,-3.6228628,-6.008592,10.1339655,12.325809078728994
1236605.6856503785,11.677391,-10.196181,5.675978,16.508794438363026
1236606.8428251892,8.250747,-4.929391,6.396243,11.54494028585419
1236608.0,-2.4862316,0.703515,7.78413,8.201765711172417
1236609.8997763249,-11.208382,2.6872358,13.048528,17.410144923851426
1236611.0569511356,-12.352192,-0.002392908,15.297861,19.662176993054295
1236612.2141259464,0.067001425,-6.9729342,9.356271,11.6690234198892
1236613.3713007572,12.744629,-8.951869,5.5515466,16.53424315149543
1236614.5284755677,6.7336435,-3.381179,6.4991384,9.950533963435722
1236615.6856503785,-3.484074,0.9021264,8.186138,8.942340802837753
1236616.8428251892,-11.533817,1.4740313,13.878867,18.105928644136366
1236618.0,-11.076772,-2.2182257,13.74965,17.795175703505276
1236618.8997763249,2.0674727,-8.59054,7.791309,11.78033602196161
1236620.0569511356,8.626433,-6.65707,5.597012,12.249835534264655
1236621.2141259464,0.6676214,-0.5001178,6.8054304,6.856363400291656
1236622.3713007572,-7.683628,2.7733805,8.820259,12.021927776660666
1236623.5284755677,-12.49098,1.639142,13.883653,18.747458187204288
1236624.6856503785,-8.116744,-3.6348274,11.90711,14.861788988591742
1236625.8428251892,7.150009,-10.002356,6.9370403,14.117091852596308
1236627.0,10.337363,-6.9394336,6.606819,14.094923546487896
1236627.8997763249,0.5814767,-0.90451926,8.143066,8.21375639550564
1236629.0569511356,-8.463716,2.2206187,10.468973,13.644230708038275
1236630.2141259464,-13.036563,1.2467052,13.936296,19.123979578223043
1236631.3713007572,-6.3412066,-4.225876,9.99757,12.570613947463327
1236632.5284755677,8.585754,-8.9973345,6.0397,13.825526244718723
1236633.6856503785,8.415857,-4.9030685,6.9107184,11.942560804293182
1236634.8428251892,-1.0720228,-0.040679436,8.35125,8.419873173791462
1236636.0,-9.229446,1.4859959,11.663034,14.947147532786609
1236636.8997763249,-11.787465,-1.0457008,13.651541,18.06660989128914
1236638.0569511356,-3.280677,-6.848503,8.9973345,11.773566283171307
1236639.2141259464,7.836774,-8.329713,6.118666,12.970629090718809
1236640.3713007572,3.172996,-2.6393776,7.705164,8.740925008160966
1236641.5284755677,-5.5874405,1.8377534,8.698221,10.500279875560118
1236642.6856503785,-11.765929,2.160796,11.789858,16.79603751623641
1236643.8428251892,-10.942769,-1.6965718,11.457244,15.93395711477385
1236645.0,1.0098072,-8.135887,7.1476164,10.876616572238344
1236646.8997763249,9.581204,-7.860703,6.4919596,13.990556143050824
1236648.0569511356,2.3881223,-2.2565124,8.827438,9.419057170171284
1236649.2141259464,-6.613998,1.6870002,10.162681,12.242182171760271
1236650.3713007572,-12.459872,1.7276796,12.928883,18.038550459622005
1236651.5284755677,-9.164838,-2.7279153,10.545546,14.235319381325242
1236652.6856503785,5.106466,-8.892047,6.2287397,11.997570300261678
1236653.8428251892,10.196181,-6.7838945,6.6020336,13.912950054802188
1236655.0,1.5506045,-1.2825987,9.076301,9.296702296151198
1236655.8997763249,-7.317513,1.6056414,10.983448,13.295119810639802
1236657.0569511356,-12.328262,0.442688,13.4529295,18.25276222213937
1236658.2141259464,-7.2337613,-4.718815,9.578811,12.89760201445694
1236659.3713007572,5.3816504,-8.518753,6.176096,11.8184379468712
1236660.5284755677,4.5225964,-3.9985495,7.6668777,9.75824215563441
1236661.6856503785,-4.065551,1.1342385,8.954262,9.899192384893187
1236662.8428251892,-10.859017,2.833203,11.071986,15.764966331384725
1236664.0,-12.364156,0.011964541,12.191867,17.364161876931067
1236664.8997763249,-3.153853,-6.1832747,8.025814,10.611002079156572
1236666.0569511356,8.793938,-8.626433,6.6666417,14.006884143431469
1236667.2141259464,4.319199,-3.6539707,9.229446,10.825417097967888
1236668.3713007572,-5.0083566,1.1462029,9.928176,11.178823534151883
1236669.5284755677,-12.167937,2.524518,12.163152,17.38890877954672
1236670.6856503785,-11.631927,-0.859054,10.906875,15.968707579947413
1236671.8428251892,0.7872668,-7.29837,6.506317,9.809085307803743
1236673.0,10.440258,-7.7769513,6.401029,14.50700282236054
1236673.8997763249,3.907619,-2.4407663,9.181588,10.272700938999474
1236675.0569511356,-5.161503,1.5721406,10.480937,11.78824752383264
1236676.2141259464,-11.720464,1.7946811,13.500788,17.968345311879364
1236677.3713007572,-9.267733,-2.6704855,11.091129,14.698146490617116
1236678.5284755677,3.5223608,-8.210068,7.0447216,11.3771852666425
1236679.6856503785,6.424958,-5.235683,7.7673798,11.358901827892565
1236680.8428251892,-2.0411506,0.4115802,9.186374,9.419403447182226
1236682.0,-9.58599,3.3931437,9.990392,14.255264317528935
1236683.8997763249,-13.273461,1.8521109,11.832931,17.878292361273793
1236685.0569511356,-6.781502,-3.8860826,8.633613,11.646015661323652
1236686.2141259464,7.0447216,-8.525931,7.111723,13.149000185070976
1236687.3713007572,6.2239537,-4.637456,9.710421,12.431245867125334
1236688.5284755677,-3.1083877,0.6460852,10.483331,10.953525872281094
1236689.6856503785,-10.78723,3.1993182,11.617569,16.173060238789446
1236690.8428251892,-12.380906,0.7872668,11.371099,16.82880016112317
1236692.0,-2.3306925,-5.4749737,7.1524024,9.30399509010907
1236692.8997763249,10.098072,-8.088029,6.695357,14.567603666336959
1236694.0569511356,5.90809,-3.3979294,9.655384,11.81854017393605
1236695.2141259464,-3.5319324,1.1677392,10.504867,11.144074300051818
1236696.3713007572,-10.899696,2.4383733,12.739842,16.942627052128984
1236697.5284755677,-10.674763,-1.3735292,11.045664,15.422186640367107
1236698.6856503785,0.52165395,-7.24094,7.44673,10.399861663505462
1236699.8428251892,6.6259627,-6.063629,8.009064,12.033955480536243
1236701.0,-0.6795859,-0.5910483,9.574025,9.61629501362332
1236701.8997763249,-8.339285,3.1299238,9.394557,12.945956841086735
1236703.0569511356,-13.096386,2.6680925,11.33042,17.521771064191892
1236704.2141259464,-9.114587,-2.318728,9.17441,13.138568969513118
1236705.3713007572,4.4651666,-7.977956,7.4945884,11.821774401040908
1236706.5284755677,7.1141157,-5.4797597,10.004748,13.443711954152937
1236707.6856503785,-1.6630712,-0.16989647,10.916447,11.043707970179078
1236708.8428251892,-9.370628,2.9911351,10.461794,14.359829107592889
1236710.0,-12.677627,1.586498,10.468973,16.517826670898987
1236710.8997763249,-5.565904,-3.9817991,7.291191,9.99977387786633
1236712.0569511356,7.8200235,-8.088029,6.9418263,13.219604117550757
1236713.2141259464,6.905933,-4.3670573,9.966462,12.887725356299937
1236714.3713007572,-2.0483294,0.37329367,10.526402,10.730337392671789
1236715.5284755677,-9.250982,2.3450499,11.359135,14.836100395523045
1236716.6856503785,-10.346934,-0.59583414,10.457008,14.722876004191896
1236717.8428251892,-1.3184924,-6.2550616,7.6716633,9.9859218711754
1236719.0,6.8221807,-6.661856,8.463716,12.749782876458896
1236720.8997763249,1.1844895,-1.6487137,10.217717,10.417437925529816
1236722.0569511356,-6.4417086,2.3881223,9.131337,11.42716295563515
1236723.2141259464,-11.545781,2.603484,10.471366,15.80293307409017
1236724.3713007572,-9.114587,-1.7228938,8.523539,12.597411492491956
1236725.5284755677,3.3022132,-7.7434506,6.8341455,10.843024666949017
1236726.6856503785,8.497216,-6.3866715,9.109801,13.999311656619737
1236727.8428251892,0.49533197,-1.0504867,10.818337,10.880500517575005
1236729.0,-7.4658732,2.8738825,10.607761,13.28619797742776
1236729.8997763249,-11.945397,2.5053747,11.734821,16.93149242615813
1236731.0569511356,-6.716893,-2.6202343,8.487645,11.136534335526942
1236732.2141259464,6.7838945,-7.84156,7.2529044,12.653691558445292
1236733.3713007572,7.7673798,-4.8025665,8.999727,12.821541249744481
1236734.5284755677,-1.0074143,0.37568656,9.239018,9.301369660836682
1236735.6856503785,-8.896832,3.5175748,10.818337,14.441723150489626
1236736.8428251892,-11.801823,1.4740313,12.239725,17.066536334954836
1236738.0,-3.9913707,-4.343128,9.652991,11.312560989240389
1236739.8997763249,6.24549,-6.5302463,9.267733,12.943768270409228
1236741.0569511356,1.9980782,-1.8305746,9.629062,10.003107260212918
1236742.2141259464,-5.9990206,2.8499537,7.903775,10.323765955405666
1236743.3713007572,-12.127258,4.2904844,9.923389,16.24660863782126
1236744.5284755677,-11.473994,0.49054617,9.889889,15.155958507770423
1236745.6856503785,0.5527618,-6.1737027,8.300998,10.359860927229212
1236746.8428251892,8.908797,-6.8389316,9.559668,14.748725425843128
1236748.0,2.3450499,-1.8114314,10.349327,10.765180542068256
1236748.8997763249,-5.9176617,2.782952,9.574025,11.594200987156292
1236750.0569511356,-11.591247,3.6037195,11.739607,16.886745505399734
1236751.2141259464,-7.599876,-1.1988469,9.688885,12.372139736045687
1236752.3713007572,6.1617384,-7.312727,8.312963,12.670767542889127
1236753.5284755677,9.478309,-5.360114,9.327556,14.337798454630788
1236754.6856503785,1.0169859,-0.24646953,9.085872,9.14593229531037
1236755.8428251892,-7.0231853,3.2304258,10.256004,12.843146057545937
1236757.0,-10.937983,1.8545038,12.486195,16.70280581311201
1236757.8997763249,-4.2785196,-3.8454032,10.07175,11.59883631234851
1236759.0569511356,7.0782223,-6.949005,9.356271,13.63560443998297
1236760.2141259464,4.4220943,-2.4934103,9.588383,10.849382538970943
1236761.3713007572,-3.9171906,2.629806,8.123923,9.394593482652315
1236762.5284755677,-10.488116,5.1399665,9.976034,15.360373928382545
1236763.6856503785,-10.904482,1.6439278,10.875768,15.488465252882897
1236764.8428251892,-0.22014755,-5.0322857,9.049978,10.357338756199852
1236766.0,9.353878,-6.5781045,9.578811,14.917108051680971
1236766.8997763249,3.804724,-1.952613,10.090894,10.95968813256933
1236768.0569511356,-4.785816,2.7997024,9.119372,10.67264325220354
1236769.2141259464,-11.385457,4.347914,11.244275,16.58212011553016
1236770.3713007572,-9.229446,0.09810923,10.172253,13.73561174407373
1236771.5284755677,3.4146798,-6.0325212,8.805902,11.206929115443778
1236772.6856503785,8.832224,-5.056215,9.674527,14.041722244302157
1236773.8428251892,1.4405307,-0.41875893,9.392164,9.511216133702
1236775.0,-6.355564,3.1466742,9.411307,11.784203482938109
1236775.8997763249,-10.945162,2.4000869,11.603211,16.130452375687316
1236777.0569511356,-5.9750915,-2.9121692,9.624276,11.696543780406968
1236778.2141259464,5.123216,-6.5781045,9.416093,12.57702700880559
1236779.3713007572,4.288091,-2.9217408,10.325398,11.555870265153967
1236780.5284755677,-3.4864671,1.9693633,8.846581,9.710604514464087
1236781.6856503785,-9.552489,4.536954,9.260554,14.056737106460838
1236782.8428251892,-10.591011,1.6104271,9.913818,14.596121977554839
1236784.0,-1.8066456,-4.4340587,8.478073,9.73666096114957
1236784.8997763249,8.370393,-6.7240715,9.760673,14.510249960786005
1236786.0569511356,4.5919905,-2.7183435,11.081557,12.299458267758443
1236787.2141259464,-3.6778998,1.9669704,9.932961,10.773097684549102
1236788.3713007572,-10.086107,3.8717253,10.842267,15.306030344717016
1236789.5284755677,-8.992549,0.24886245,9.401736,13.012321462756635
1236790.6856503785,1.87604,-5.4319015,8.231604,10.039142612799075
1236791.8428251892,8.360821,-5.0346785,9.765458,13.806356700526292
1236793.0,2.2014754,-0.5934412,10.275147,10.525080154862081
1236793.8997763249,-5.2715764,3.0964231,9.703242,11.468664223256978
1236795.0569511356,-9.7917795,2.6393776,11.349563,15.220310121116817
1236796.2141259464,-6.200025,-2.2732627,9.262947,11.375861304914247
1236797.3713007572,3.9602628,-6.247883,9.466345,12.013800859252573
1236798.5284755677,4.374236,-3.0748868,10.691513,11.953966690838621
1236799.6856503785,-2.9049904,1.7396442,9.231839,9.833218317957087
1236800.8428251892,-8.784366,4.63267,8.978191,13.387853860247244
1236802.0,-10.533582,2.2732627,9.863567,14.60869696507612
1236803.8997763249,-3.3500714,-3.3620358,8.61447,9.835413386659434
1236805.0569511356,7.161974,-6.4225655,10.296683,14.091305829516129
1236806.2141259464,4.9533195,-2.7685947,11.639105,12.948716379741018
1236807.3713007572,-2.9911351,1.8832186,10.047821,10.651389971730403
1236808.5284755677,-9.392164,4.3526998,10.574261,14.79776117687865
1236809.6856503785,-9.490273,1.1892753,9.212696,13.279812684753315
1236810.8428251892,-0.110073775,-4.319199,8.358428,9.409086824380342
1236812.0,7.3893003,-4.78103,10.267968,13.52372632204246
1236812.8997763249,2.7662017,-0.8351249,10.638869,11.024284060329899
1236814.0569511356,-4.469952,3.0007067,9.56206,10.97350003532733
1236815.2141259464,-9.279697,3.1083877,10.99302,14.718061666731808
1236816.3713007572,-6.6355343,-1.5338541,9.411307,11.61704451634805
1236817.5284755677,2.9217408,-5.9750915,10.064571,12.063742253123527
1236818.6856503785,4.613527,-3.412287,11.600819,12.942462494473725
1236819.8428251892,-2.1464386,1.2036327,9.877925,10.179849342976754
1236821.0,-7.8942037,4.374236,8.281855,12.249143434616753
1236822.8997763249,-10.177038,2.6680925,8.858545,13.75371366428083
1236824.0569511356,-4.326378,-2.6202343,7.803273,9.299152859175372
1236825.2141259464,6.0851655,-6.2407045,10.363685,13.541846203451563
1236826.3713007572,5.757337,-3.2854629,12.524481,14.170526458752562
1236827.5284755677,-1.5984626,1.0624512,10.983448,11.14988857364432
1236828.6856503785,-7.683628,3.699436,10.169859,13.272151221273853
1236829.8428251892,-8.34407,0.98109233,8.633613,12.046797074685614
1236831.0,-0.67001426,-4.0488005,7.9444547,8.941815535882839
1236831.8997763249,6.374707,-4.7236004,10.516831,13.173952495636614
1236833.0569511356,2.8068812,-1.1414171,11.428529,11.823395881510812
1236834.2141259464,-3.852582,2.4000869,9.626669,10.643099230479654
1236835.3713007572,-8.377571,2.8403819,9.858782,13.245642593751827
1236836.5284755677,-6.432137,-1.3950654,8.265104,10.565535385765463
1236837.6856503785,2.1177237,-5.7453723,9.408915,11.225940406592848
1236838.8428251892,4.4675593,-3.6013267,12.191867,13.474800964943356
1236840.0,-1.4477094,0.7059079,11.043271,11.160107654031469
1236840.8997763249,-6.893968,3.8334389,8.38475,11.51199727013333
1236842.0569511356,-9.227054,2.6130557,8.119137,12.565308242736727
1236843.2141259464,-4.5537043,-2.1751535,6.6857853,8.37658884499513
1236844.3713007572,4.874354,-5.9439836,9.794173,12.450545879932895
1236845.5284755677,5.3505425,-3.3716075,12.562767,14.064819830863511
1236846.6856503785,-1.2562767,0.416366,11.450066,11.526300499174697
1236847.8428251892,-6.9585767,3.0437791,10.24404,12.752518826529121
1236849.0,-7.865489,0.6197632,8.592933,11.665698486403816
1236849.8997763249,-1.301742,-3.9650488,7.293584,8.40312512021578
1236851.0569511356,5.515653,-4.7714586,10.102858,12.460216087856862
1236852.2141259464,2.7566302,-1.2203832,11.234703,11.63214927313965
1236853.3713007572,-3.464931,2.1512244,9.655384,10.481409897593565
1236854.5284755677,-8.013849,3.1801748,9.746315,13.012530254819046
1236855.6856503785,-6.551782,-0.8566611,8.097601,10.4513567335049
1236856.8428251892,1.0289505,-5.1136446,9.229446,10.601451489936432
1236858.0,3.9650488,-3.5343254,12.120079,13.232890197749985
1236859.8997763249,-1.1294526,0.3278284,11.127023,11.189002434445275
1236861.0569511356,-6.2885623,3.4529665,8.339285,11.000575792308716
1236862.2141259464,-9.090658,2.8499537,8.121531,12.518848379506347
1236863.3713007572,-5.1160374,-1.6104271,6.6857853,8.571291571304132
1236864.5284755677,3.8334389,-5.372079,9.664956,11.703241476796514
1236865.6856503785,5.228504,-3.1706033,12.469444,13.88801688626288
1236866.8428251892,-0.55754757,0.27518442,11.385457,11.402421534773772
1236868.0,-6.0755935,3.0318146,10.126787,12.192479283943214
1236868.8997763249,-7.5065527,1.1031306,9.030835,11.794965508883807
1236870.0569511356,-1.6941789,-3.3404996,7.810452,8.662120997025461
1236871.2141259464,5.1686816,-4.42688,10.6269045,12.619177281768366
1236872.3713007572,3.3452854,-1.0887731,11.275383,11.811461512760635
1236873.5284755677,-2.41923,2.2780485,9.332341,9.906299374717747
1236874.6856503785,-7.0662575,3.6946502,9.782208,12.620381472520167
1236875.8428251892,-5.958341,-0.2368979,8.61447,10.47697673320913
1236877.0,1.457281,-4.8552103,9.853995,11.081423754654097
1236877.8997763249,5.0131426,-3.7042217,12.689591,14.137842016303853
1236879.0569511356,0.42354473,0.069394335,11.368707,11.37680555181857
1236880.2141259464,-5.1016803,3.3117847,8.480466,10.436156541549105
1236881.3713007572,-8.6551485,3.433823,8.600112,12.675356498533887
1236882.5284755677,-5.149538,-1.014593,7.1524024,8.87152752690419
1236883.6856503785,3.936334,-5.130395,9.686492,11.646622063141097
1236884.8428251892,6.2861695,-3.2974274,12.213403,14.12643505210745
1236886.0,0.8997334,0.13878867,11.208382,11.245292772708051
1236886.8997763249,-4.8767467,3.2208543,10.418722,11.94597542735935
1236888.0569511356,-7.1978674,1.8521109,10.07175,12.517178514201255
1236889.2141259464,-1.9382555,-2.7805593,8.681471,9.319671835850109
1236890.3713007572,5.173467,-4.3024487,11.143773,13.017661168264816
1236891.5284755677,4.034443,-1.2060257,11.158131,11.926236444179299
1236892.6856503785,-1.6606783,2.060294,9.038013,9.417448846194805
1236893.8428251892,-6.769537,3.9913707,9.566847,12.380720204438694
1236895.0,-6.357957,0.2919348,8.9973345,11.020928783282754
1236896.8997763249,0.74658734,-4.527382,9.880318,10.893817705987939
1236898.0569511356,5.360114,-3.979406,12.821201,14.455092157721895
1236899.2141259464,1.5338541,-0.39722276,11.545781,11.653993016177322
1236900.3713007572,-4.168446,2.9002047,8.671899,10.04932642633421
1236901.5284755677,-8.260319,3.8071167,8.710185,12.59342408892057
1236902.6856503785,-5.412758,-0.5910483,7.0279713,8.89042562834427
1236903.8428251892,3.2950344,-4.929391,9.435237,11.14360105954235
1236905.0,6.551782,-3.4816813,12.029149,14.133236632650524
1236905.8997763249,2.1727605,-0.43311638,11.318456,11.53325297619542
1236907.0569511356,-3.6898644,2.6633067,10.387614,11.340671341752579
1236908.2141259464,-6.618784,1.9047549,10.160288,12.274683096140365
1236909.3713007572,-2.165582,-2.6656997,8.61447,9.273876949270143
1236910.5284755677,4.7451367,-4.398165,11.0672,12.81963702719043
1236911.6856503785,4.194768,-1.380708,11.5218525,12.339186285442173
1236912.8428251892,-1.1127023,1.5410328,9.337128,9.528633049261847
1236914.0,-6.1234517,3.697043,9.224661,11.673009818851472
1236914.8997763249,-6.357957,0.48097453,8.47568,10.606229545637683
1236916.0569511356,0.03828653,-4.321592,8.956655,9.944812319087195
1236917.2141259464,4.9844275,-4.1014442,12.304334,13.894711123734307
1236918.3713007572,2.318728,-0.8997334,11.895146,12.152387341192494
1236919.5284755677,-3.2352118,2.1895108,9.394557,10.174392078174739
1236920.6856503785,-7.5568037,3.7305436,9.176803,12.459372015179722
1236921.8428251892,-5.2955055,-0.34218585,7.138045,8.894445237253162
1236923.0,2.811667,-4.8001738,8.925548,10.5172499699018
1236923.8997763249,6.4728165,-3.5247536,11.562531,13.711796545651712
1236925.0569511356,2.885847,-0.9499845,11.062414,11.472034996679763
1236926.2141259464,-3.0054924,2.0220072,10.296683,10.915272716968579
1236927.3713007572,-6.456066,2.005257,10.382828,12.38971190585112
1236928.5284755677,-2.6872358,-2.3976939,8.334499,9.07931968067541
1236929.6856503785,4.4914885,-4.737958,10.4354725,12.309378589256749
1236930.8428251892,4.8217096,-1.8425392,10.825516,11.993149329368196
1236932.0,0.15314612,0.9954498,9.064336,9.12011848384039
1236933.8997763249,-5.029893,3.4505734,9.384986,11.19304438481473
1236935.0569511356,-6.094737,1.0863802,9.294055,11.167161652861752
1236936.2141259464,-0.25125536,-3.8693323,9.186374,9.971174904274221
1236937.3713007572,5.5395823,-4.618313,12.120079,14.103620173227982
1236938.5284755677,3.5056105,-1.5458187,11.167702,11.806626461093108
1236939.6856503785,-2.2852273,1.6367491,9.021263,9.449042149561249
1236940.8428251892,-7.3270845,4.0464077,9.399343,12.58599346004949
1236942.0,-6.2981343,0.70830077,8.210068,10.371759841330839
1236942.8997763249,1.6080343,-4.027264,9.172017,10.145468223988555
1236944.0569511356,6.65707,-3.6587565,11.318456,13.631233485460083
1236945.2141259464,4.2593765,-1.040915,10.169859,11.074828408867484
1236946.3713007572,-1.8712541,2.1727605,10.050214,10.45128133498104
1236947.5284755677,-6.716893,3.48886,11.596032,13.847626288215356
1236948.6856503785,-3.8071167,-0.8925547,9.798959,10.550373876957725
1236949.8428251892,3.7927594,-4.2856984,11.409386,12.764259615780576
1236951.0,5.520439,-1.9645776,10.650834,12.156277258877356
1236951.8997763249,1.3950654,0.703515,8.324927,8.470274516261629
1236953.0569511356,-4.4914885,3.646792,9.167231,10.840234547474386
1236954.2141259464,-7.243333,2.5388756,10.595797,13.083679770094243
1236955.3713007572,-1.9956853,-2.6345918,9.782208,10.325474668242974
1236956.5284755677,5.448652,-4.9102473,12.122473,14.168722200678165
1236957.6856503785,5.3744717,-2.3498356,10.600583,12.115239714550317
1236958.8428251892,-0.46661708,0.81119585,8.906404,8.955434239478338
1236960.0,-6.4153867,4.0440145,10.344542,12.826565751459396
1236960.8997763249,-7.087794,1.797074,9.473523,11.967202546102452
1236962.0569511356,0.16750357,-3.3022132,9.241411,9.81510808575932
1236963.2141259464,6.795859,-4.144517,10.583833,13.24304503062113
1236964.3713007572,6.4441013,-2.424016,8.925548,11.272431070235989
1236965.5284755677,-0.047858164,0.75615895,9.856388,9.88546666415251
1236966.6856503785,-6.2550616,3.35725,12.337834,14.23443258419002
1236967.8428251892,-4.9772487,-0.34936458,10.715443,11.820142931354903
1236969.0,2.2756555,-4.2521977,11.007378,12.017577279528913
1236970.8997763249,5.2428617,-2.5819478,10.081322,11.652772481900422
1236972.0569511356,2.1416528,-0.30150643,7.7147355,8.01216117399291
1236973.2141259464,-3.936334,2.5628045,9.102622,10.243066901063385
1236974.3713007572,-7.918133,2.9049904,10.751336,13.664809739424737
1236975.5284755677,-4.0464077,-1.9550059,9.373021,10.39466141873294
1236976.6856503785,3.491253,-5.1327877,11.1007,12.718486449781683
1236977.8428251892,5.130395,-3.1275308,9.794173,11.490353628801103
1236979.0,0.5934412,-0.4091873,8.423037,8.453825111019729
1236979.8997763249,-5.4821525,2.8834543,10.198574,11.932276244158981
1236981.0569511356,-7.530482,2.0387578,10.272755,12.899387109836258
1236982.2141259464,-1.6176059,-2.8427749,9.109801,9.679178283273112
1236983.3713007572,5.42233,-4.5393467,10.514439,12.67125718215923
1236984.5284755677,6.4106007,-2.9265265,8.535503,11.06865710703208
1236985.6856503785,0.8614469,-0.49533197,8.973405,9.028257961315056
1236986.8428251892,-5.49651,2.4838386,11.823359,13.273013765299536
1236988.0,-5.726229,-0.071787246,10.715443,12.149714838438731
1236989.8997763249,0.7776951,-4.3335567,10.390007,11.284359476759322
1236991.0569511356,4.9868207,-3.3189635,10.26079,11.88140188834553
1236992.2141259464,3.697043,-1.1820966,7.5591965,8.49746615416577
1236993.3713007572,-2.1464386,1.5936768,8.693435,9.095208436624924
1236994.5284755677,-7.1212945,3.228033,11.203596,13.662122665824489
1236995.6856503785,-4.419701,-1.1820966,9.916211,10.920730282250064
1236996.8428251892,2.9289196,-5.2261114,11.14138,12.649946983796973
1236998.0,5.518046,-3.5582542,10.246432,12.169608594386165
1236998.8997763249,1.9550059,-1.1916683,8.356035,8.664031528537087
1237000.0569511356,-4.5345607,1.9454343,10.019106,11.168233539680166
1237001.2141259464,-8.214853,2.6465564,10.808765,13.83175590498961
1237002.3713007572,-3.460145,-1.9454343,8.872903,9.720376828294802
1237003.5284755677,4.144517,-4.6900997,10.119608,11.89876138229913
1237004.6856503785,6.6786065,-3.153853,8.32732,11.130805537329778
1237005.8428251892,2.8595252,-1.1557746,8.389536,8.938512940681811
1237007.0,-3.9770133,2.0411506,12.06265,12.864309370609728
1237007.8997763249,-6.109094,0.92366254,12.263654,13.732129893805668
1237009.0569511356,-0.28714898,-3.7353296,11.086343,11.702228115662427
1237010.2141259464,4.936569,-3.852582,11.237097,12.864075969376657
1237011.3713007572,4.682921,-1.5386399,7.523303,8.994289847671244
1237012.5284755677,-0.75615895,0.99784267,7.697985,7.79913068309301
1237013.6856503785,-6.6546774,3.441002,10.818337,13.159089691450689
1237014.8428251892,-5.903304,0.047858164,10.46658,12.016679467168851
1237016.0,1.2658484,-4.6422415,10.705871,11.737480657481221
1237016.8997763249,5.4773664,-4.0176926,10.67237,12.650805425934102
1237018.0569511356,3.82626,-1.899969,7.958812,9.032875303019798
1237019.2141259464,-2.6704855,1.1318455,9.4495945,9.884705521967296
1237020.3713007572,-7.91574,3.2519622,11.540996,14.367629817400113
1237021.5284755677,-4.8217096,-0.72983694,9.559668,10.731672642041628
1237022.6856503785,2.9791706,-4.6542063,10.569475,11.926897984073188
1237023.8428251892,6.633141,-3.615684,9.11698,11.840230345484711
1237025.0,4.6996713,-2.1416528,7.3821216,9.009400999010872
1237025.8997763249,-2.3211207,0.9858781,10.607761,10.903400862352493
1237027.0569511356,-6.58289,1.6487137,12.172724,13.936567267331066
1237028.2141259464,-2.1249025,-2.9002047,10.40915,11.012574706166962
1237029.3713007572,4.1612673,-4.7236004,11.275383,12.913667491368145
1237030.5284755677,5.441473,-2.6106627,8.274676,10.241848028938737
1237031.6856503785,1.4213874,-0.45465255,7.3845143,7.5337973512037575
1237032.8428251892,-4.9317837,2.3809435,10.528795,11.867893939777309
1237034.0,-6.4704237,0.7944455,11.150951,12.916703709321235
1237034.8997763249,-0.21536173,-4.3287706,10.299076,11.173880348202632
1237036.0569511356,5.565904,-5.305077,10.921232,13.356512932310176
1237037.2141259464,5.5635114,-3.306999,7.958812,10.258244973448186
1237038.3713007572,-0.36372203,-0.46901,8.624041,8.644440251681326
1237039.5284755677,-6.795859,2.6752713,11.167702,13.343850420223118
1237040.6856503785,-6.202418,0.19861138,9.999963,11.76897172774064
1237041.8428251892,1.1366314,-4.3838077,9.777423,10.775328366735478
1237043.0,6.2311325,-4.326378,9.547704,12.19439258442405
1237043.8997763249,6.31967,-3.0940301,6.9131117,9.864196092195394
1237045.0569511356,-0.105287954,-0.20339718,9.703242,9.705944635977142
1237046.2141259464,-6.381886,2.1823323,12.921703,14.5760574780984
1237047.3713007572,-4.0751224,-1.5338541,11.194024,12.01105758406164
1237048.5284755677,2.861918,-4.8887115,11.607997,12.91648826581611
1237049.6856503785,5.4319015,-3.101209,9.014085,10.97163522701189
1237050.8428251892,3.175389,-1.2490981,6.4536734,7.300222032144787
1237052.0,-3.3022132,1.6750357,9.234232,9.948939503502508
1237053.8997763249,-7.3270845,2.031579,11.268204,13.593597827249313
1237055.0569511356,-2.5197322,-2.9121692,10.148323,10.854411062857094
1237056.2141259464,4.5489182,-5.7358007,11.426136,13.570138184665172
1237057.3713007572,6.334028,-3.9626558,8.59054,11.385074843217224
1237058.5284755677,2.1512244,-1.5386399,7.604662,8.051463425692956
1237059.6856503785,-4.867175,1.9502201,10.6963,11.912329100938615
1237060.8428251892,-7.3893003,1.5123179,11.7755,13.98396455245223
1237062.0,-0.96194905,-3.2854629,9.985605,10.556131851113708
1237062.8997763249,6.013378,-4.9652843,10.059786,12.728474280781123
1237064.0569511356,7.91574,-3.8932614,6.6738205,11.06147838864906
1237065.2141259464,2.8020954,-1.6271775,7.7458434,8.396281035347195
1237066.3713007572,-4.5848117,1.5506045,11.928647,12.873130617316292
1237067.5284755677,-5.434294,-0.51208234,12.684806,13.809347662326845
1237068.6856503785,1.251491,-4.9317837,11.825752,12.873893371943495
1237069.8428251892,5.7860518,-4.3407354,10.107644,12.429193315570902
1237071.0,5.34815,-2.4479449,5.6113696,8.129121197505926
1237072.8997763249,-0.885376,0.43072346,7.44673,7.511537862067286
1237074.0569511356,-6.9729342,2.6417706,11.34717,13.577887548122277
1237075.2141259464,-4.7977805,-1.4046371,11.191631,12.25741847001389
1237076.3713007572,2.9289196,-5.8698034,11.969326,13.649099855748426
1237077.5284755677,6.819788,-5.0274997,9.435237,12.681047229807684
1237078.6856503785,4.862389,-2.9767776,6.257455,8.46520966924079
1237079.8428251892,-2.4096584,0.64129937,8.624041,8.977293671053317
1237081.0,-7.961205,2.424016,12.055471,14.648925545995583
1237081.8997763249,-3.9506912,-1.7324655,11.234703,12.034448436245704
1237083.0569511356,4.347914,-5.2572193,11.1007,13.029514626788233
1237084.2141259464,8.224425,-4.4364514,7.336656,11.880647661955258
1237085.3713007572,5.4031863,-2.8690968,6.044486,8.600113350675903
1237086.5284755677,-2.3546216,0.57429796,10.181824,10.466307896914879
1237087.6856503785,-6.594855,0.5144752,13.728114,15.238697818364797
1237088.8428251892,-1.3783151,-3.9650488,13.0102415,13.670689389697642
1237090.0,5.393615,-5.515653,11.763536,14.067490536976736
1237090.8997763249,7.138045,-3.7568657,5.9750915,10.03829889688655
1237092.0569511356,2.184725,-1.1485959,5.3649,5.9054591588734064
1237093.2141259464,-5.1208234,2.0866158,9.286877,10.808463452495282
1237094.3713007572,-6.642713,-0.009571632,12.574732,14.221449029136663
1237095.5284755677,0.28236315,-5.1447525,12.799665,13.797812556596032
1237096.6856503785,6.7049284,-6.190453,11.23231,14.472130497284619
1237097.8428251892,7.2505116,-4.4603806,5.910483,10.363335508024427
1237099.0,0.7202653,-1.0576653,6.5733185,6.696712185218239
1237099.8997763249,-6.690571,2.3665862,10.768086,12.896361760258877
1237101.0569511356,-6.307706,-0.2967206,12.392871,13.908934169070662
1237102.2141259464,1.7611804,-4.9892135,12.8594885,13.90541089761675
1237103.3713007572,7.887025,-5.259612,9.404129,13.353139106210568
1237104.5284755677,8.272284,-4.137338,4.8528175,10.44500291963608
1237105.6856503785,1.1127023,-0.8255533,7.2768335,7.407560357249102
1237106.8428251892,-6.063629,1.5147108,12.187081,13.696236298992458
1237108.0,-4.0990515,-2.1464386,13.665898,14.427965553383686
1237109.8997763249,3.3955367,-5.5635114,13.512752,15.002559621360644
1237111.0569511356,7.0662575,-4.3048415,8.133494,11.602473014166613
1237112.2141259464,4.6039553,-2.0722585,4.455595,6.733720108472385
1237113.3713007572,-2.6417706,1.2873845,7.24094,7.814571187049524
1237114.5284755677,-7.336656,1.3902797,12.148794,14.260175123784563
1237115.6856503785,-2.5699832,-3.5391111,13.278247,13.980055951942198
1237116.8428251892,5.2476473,-6.6044264,12.988705,15.487501665382936
1237118.0,7.98992,-5.178253,7.0590787,11.852582749392754
1237118.8997763249,3.3500714,-2.316335,5.001178,6.449819191652349
1237120.0569511356,-4.5106316,1.5458187,8.377571,9.639452720161517
1237121.2141259464,-7.729093,1.0337363,12.25169,14.522788891830889
1237122.3713007572,-1.4955676,-3.6898644,13.33807,13.919624027302502
1237123.5284755677,6.2072034,-5.798016,12.06265,14.753097593648853
1237124.6856503785,9.370628,-4.9844275,5.446259,11.929581874995504
1237125.8428251892,4.331164,-2.318728,5.1327877,7.104997586639371
1237127.0,-3.8214743,1.1485959,9.736743,10.522694646102124
1237127.8997763249,-5.57069,-0.8183746,13.831009,14.933155527888475
1237129.0569511356,0.7896597,-5.001178,14.9819975,15.814410925465873
1237130.2141259464,6.3435993,-5.106466,11.514674,14.103367130383882
1237131.3713007572,6.664249,-3.383572,4.9317837,8.954510856365673
1237132.5284755677,0.416366,-0.12921704,5.0849295,5.103583614417678
1237133.6856503785,-6.4441013,2.0866158,9.351485,11.546890437113204
1237134.8428251892,-5.0968943,-1.7587874,12.749414,13.842659497624265
1237136.0,2.3091564,-6.042093,14.242589,15.64258394649781
1237136.8997763249,7.157188,-5.6424775,9.844424,13.415497616455612
1237138.0569511356,5.6999073,-3.441002,4.9844275,8.317088162052482
1237139.2141259464,-1.6463208,0.28475606,6.781502,6.984284327418476
1237140.3713007572,-7.705164,2.000471,11.016949,13.592078640051271
1237141.5284755677,-4.1038375,-2.134474,13.043742,13.839677266672306
1237142.6856503785,4.070337,-5.802802,13.771186,15.488244516127997
1237143.8428251892,9.121766,-5.43908,7.360585,12.921625971501458
1237145.0,7.2720475,-3.5821834,3.6372204,8.88504839557264
1237146.8997763249,-0.677193,0.2057901,7.087794,7.12304455348575
1237148.0569511356,-6.0325212,0.45465255,13.043742,14.378359653737798
1237149.2141259464,-1.8592896,-3.6539707,15.24761,15.789175735459613
1237150.3713007572,4.9963923,-5.62812,14.075086,15.960818170046776
1237151.5284755677,7.549625,-4.1804104,6.252669,10.656854056268864
1237152.6856503785,3.0557437,-1.251491,3.8645465,5.083160329345607
1237153.8428251892,-4.4364514,1.9334698,7.6070547,9.015968483799513
1237155.0,-6.7599654,-0.11246668,12.665663,14.35718636059574
1237155.8997763249,-0.7609448,-4.850425,14.888674,15.677317154014204
1237157.0569511356,5.932019,-6.257455,12.373728,15.08156945120003
1237158.2141259464,7.5687685,-4.608741,4.6757426,10.01944704427984
1237159.3713007572,1.742037,-1.1222739,4.1253734,4.616589358543575
1237160.5284755677,-5.9009113,2.1249025,9.014085,10.981333853052595
1237161.6856503785,-6.226347,-0.57908374,13.835794,15.183277991026095
1237162.8428251892,1.0576653,-4.9963923,15.592189,16.40728343492744
1237164.0,7.6764493,-5.9439836,10.6963,14.445402333702564
1237164.8997763249,8.691042,-4.618313,3.3740003,10.404177239750055
1237166.0569511356,1.8329676,-1.0217718,4.3550925,4.834316758082909
1237167.2141259464,-5.826731,1.2682413,10.519224,12.091869322133888
1237168.3713007572,-4.898283,-2.1966896,15.166251,16.08831224652972
1237169.5284755677,2.1009734,-5.7118716,16.599604,17.680113669295515
1237170.6856503785,7.2457256,-5.3074703,9.01887,12.728306899693196
1237171.8428251892,6.250276,-3.0677083,2.2780485,7.325727899561732
1237173.0,-0.89734054,0.6748001,4.57524,4.710986762588863
1237173.8997763249,-6.7216787,1.1414171,11.323241,13.217397031423664
1237175.0569511356,-3.3548572,-3.4194658,15.453401,16.178857056558797
1237176.2141259464,4.0918727,-6.5924616,15.28829,17.144555499183404
1237177.3713007572,8.0617075,-5.6999073,6.767144,11.969724681916688
1237178.5284755677,4.4675593,-2.5939124,2.4790528,5.7300235970786435
1237179.6856503785,-3.4577522,1.4118158,6.0492716,7.109357286021082
1237180.8428251892,-7.707557,0.9212696,13.275854,15.37866938370967
1237182.0,-2.5388756,-3.5056105,16.305275,16.870008509648436
1237183.8997763249,5.5946193,-6.1808815,13.582147,15.936680280365286
1237185.0569511356,9.813316,-5.6113696,4.1062303,12.027043152009485
1237186.2141259464,5.2500405,-2.5436614,2.1249025,6.208731690449866
1237187.3713007572,-3.4051082,1.117488,7.9061685,8.680497775717905
1237188.5284755677,-6.475209,-0.63651353,15.640047,16.939437748336367
1237189.6856503785,-1.0433079,-4.5225964,18.04492,18.63227059104433
1237190.8428251892,5.752551,-5.6640134,11.993256,14.457215509375121
1237192.0,7.674056,-3.8956544,2.0555081,8.848297703204892
1237192.8997763249,1.7683591,-0.31586388,2.0746512,2.744274311890651
1237194.0569511356,-5.8482676,2.1057591,9.533346,11.380735532651594
1237195.2141259464,-5.936805,-1.4142087,16.063593,17.18384880999684
1237196.3713007572,1.1150951,-5.7884445,17.224152,18.204970171102403
1237197.5284755677,7.317513,-6.345992,9.181588,13.346129370382148
1237198.6856503785,6.9107184,-4.1038375,1.1605604,8.12073958901238
1237199.8428251892,-0.5072965,-0.0598227,3.3787863,3.4171809076218413
1237201.0,-7.7434506,1.7946811,11.978898,14.376227069010199
1237201.8997763249,-5.7429795,-1.9215052,17.492159,18.510797450470044
1237203.0569511356,2.4288018,-5.752551,16.259811,17.41758809212703
1237204.2141259464,8.906404,-6.0755935,5.7118716,12.200915775602454
1237205.3713007572,7.312727,-3.7975452,0.13160995,8.241034334445589
1237206.5284755677,-1.0169859,0.08375178,5.0394645,5.14173872617155
1237207.6856503785,-7.324692,0.38765112,14.560845,16.303974773033914
1237208.8428251892,-4.0153,-3.4673238,19.210266,19.929357446109556
1237210.0,3.493646,-6.0253425,15.010713,16.547864496181713
1237210.8997763249,8.248354,-5.15911,2.995921,10.179749620676189
1237212.0569511356,4.3622713,-1.9837208,-0.38765112,4.8077887326705175
1237213.2141259464,-3.9506912,1.5314612,6.31967,7.608650555372016
1237214.3713007572,-7.791309,-0.2368979,16.422527,18.178559063199547
1237215.5284755677,-2.443159,-4.625491,18.839365,19.552132019132518
1237216.6856503785,5.317042,-6.812609,12.306726,15.037888211305502
1237217.8428251892,8.073672,-5.185432,1.0959519,9.65784630015003
1237219.0,1.9215052,-1.4405307,0.8566611,2.549741000871018
1237220.8997763249,-6.642713,1.902362,9.521381,11.764408753803737
1237222.0569511356,-8.269891,-0.50968945,18.253103,20.045614223962588
1237223.2141259464,-1.093559,-4.7547083,18.760399,19.384418818828973
1237224.3713007572,7.420408,-6.568533,8.982977,13.375423598566215
1237225.5284755677,9.686492,-5.099287,-0.8710185,10.981326349843869
1237226.6856503785,2.4359803,-1.251491,1.8305746,3.2941209921971977
1237227.8428251892,-6.226347,1.1103094,12.433551,13.949672913647056
1237229.0,-6.489567,-1.9167194,19.86353,20.98447324015367
1237229.8997763249,0.7968384,-5.4893312,18.107136,18.93768947315126
1237231.0569511356,7.6405554,-5.7740874,6.200025,11.40870203502278
1237232.2141259464,6.850896,-3.2950344,-1.8066456,7.813833631707212
1237233.3713007572,-1.1055236,0.5599405,2.9600272,3.2089681859496593
1237234.5284755677,-7.9803486,0.9212696,14.694849,16.747336760995974
1237235.6856503785,-5.3385777,-3.2160685,19.78935,20.747575325279083
1237236.8428251892,2.7279153,-6.669035,15.573046,17.15917572126689
1237238.0,8.449359,-6.1497736,3.1658175,10.919422296323383
1237238.8997763249,4.78103,-2.9360983,-1.0887731,5.715273217567687
1237240.0569511356,-3.9506912,1.1127023,5.7860518,7.093973695924307
1237241.2141259464,-9.210303,0.55036885,17.307903,19.613671086267054
1237242.3713007572,-4.3646646,-3.5750046,19.844387,20.63081797618028
1237243.5284755677,4.773852,-6.855682,12.701556,15.20261699261558
1237244.6856503785,10.346934,-6.384279,-0.1196454,12.158633828351695
1237245.8428251892,5.3026843,-3.1299238,-1.1270597,6.259804098103792
1237247.0,-4.063158,0.5001178,8.473288,9.410418708951523
1237247.8997763249,-8.116744,-1.0552725,19.48545,21.134755615177863
1237249.0569511356,-2.6393776,-4.7451367,20.368433,21.079746186625627
1237250.2141259464,5.343364,-6.5278535,10.629298,13.570054757692109
1237251.3713007572,8.023421,-4.8001738,-1.4692456,9.464440590260303
1237252.5284755677,1.4022441,-1.040915,-0.10289505,1.7493941649966462
1237253.6856503785,-6.980113,1.1820966,10.957127,13.045227554881118
1237254.8428251892,-7.753022,-2.1392598,19.76542,21.339109878361374
1237256.0,-0.52165395,-6.3172774,17.48498,18.598511827361385
1237256.8997763249,7.0686507,-7.2816195,6.2359185,11.911107622720609
1237258.0569511356,7.0638647,-4.737958,-1.9310769,8.722126375109667
1237259.2141259464,-0.83751786,-0.43072346,2.390515,2.569342489828546
1237260.3713007572,-8.372786,1.1031306,14.42445,16.714819781408124
1237261.5284755677,-6.6594634,-2.5053747,21.19638,22.358709271059002
1237262.6856503785,1.9980782,-6.6522846,16.362705,17.77591971768936
1237263.8428251892,9.937747,-7.362978,3.0246358,12.732662022811045
1237265.0,8.088029,-4.587205,-2.6154485,9.659152844479596
1237266.8997763249,-0.9739136,-0.3852582,4.1038375,4.235376465833758
1237268.0569511356,-8.1119585,0.028714897,16.963326,18.803167930785172
1237269.2141259464,-5.623334,-3.280677,21.071949,22.05474464854413
1237270.3713007572,2.526911,-6.3100986,14.206696,15.7490582188288
1237271.5284755677,8.348856,-5.5802617,0.55754757,10.057513432356718
1237272.6856503785,4.115802,-2.1799393,-1.8162172,4.999060548989613
1237273.8428251892,-4.544132,1.1342385,7.2768335,8.653781739507215
1237275.0,-8.602505,-0.8877689,19.167194,21.027899365568313
1237275.8997763249,-3.5056105,-5.0394645,19.861137,20.788224319485288
1237277.0569511356,5.022714,-7.7889156,10.811159,14.239944560039563
1237278.2141259464,8.413465,-5.9822702,-1.5242825,10.43539108954903
1237279.3713007572,1.7827165,-1.7659662,-0.5934412,2.578543619327028
1237280.5284755677,-6.99447,1.3137065,10.406757,12.60749882435415
1237281.6856503785,-9.028442,-1.222776,20.823086,22.72903114206446
1237282.8428251892,-1.7755378,-5.5850477,17.989883,18.9203906578113
1237284.0,7.8702745,-7.9492407,6.6714277,13.024576613779583
1237284.8997763249,10.299076,-6.109094,-2.864311,12.312443845936231
1237286.0569511356,2.4934103,-1.9167194,1.0433079,3.3135177012783346
1237287.2141259464,-6.264633,0.2392908,13.570182,14.948335232552742
1237288.3713007572,-7.0686507,-2.5173392,22.423943,23.646057579091618
1237289.5284755677,0.13160995,-6.1306305,17.865452,18.888523676316613
1237290.6856503785,8.353642,-7.0231853,4.23784,11.707593872692208
1237291.8428251892,7.374943,-3.9004402,-2.916955,8.8380905448547
1237293.0,-0.9691278,0.2967206,2.4790528,2.678237217347455
1237293.8997763249,-8.023421,0.34936458,15.841051,17.760524680808295
1237295.0569511356,-6.381886,-3.328535,21.062378,22.25828792108919
1237296.2141259464,1.9717562,-7.29837,14.367021,16.234694933492882
1237297.3713007572,8.712579,-6.9466124,0.7154795,11.165857225578115
1237298.5284755677,4.8958898,-3.330928,-2.2828343,6.346349400733033
1237299.6856503785,-3.9435124,0.74658734,6.1043086,7.305564056884041
1237300.8428251892,-9.0978365,0.0071787243,19.054728,21.115239512465845
1237302.0,-4.7044573,-3.8621538,20.646011,21.524542287224108
1237303.8997763249,5.068179,-7.7458434,11.832931,15.023407882505406
1237305.0569511356,11.0289135,-7.150009,-1.4812101,13.227000606747747
1237306.2141259464,5.259612,-3.3787863,-1.5051392,6.430020160387394
1237307.3713007572,-4.3335567,0.12443122,8.801116,9.810955083277141
1237308.5284755677,-8.856153,-1.5841051,21.182022,23.013450217986417
1237309.6856503785,-3.9243693,-4.9772487,19.7726,20.76365550148707
1237310.8428251892,5.503689,-7.5831256,8.255533,12.487922629011814
1237312.0,8.951869,-5.498903,-2.9097762,10.901407722430001
1237312.8997763249,2.0028641,-1.1773108,-0.27039862,2.338940088280021
1237314.0569511356,-6.3675284,0.69155043,11.978898,13.583727662775182
1237315.2141259464,-7.733879,-2.5891266,22.069792,23.528539688232513
1237316.3713007572,-0.9763065,-6.824574,17.939632,19.21869873219418
1237317.5284755677,8.085636,-8.674292,4.991606,12.866117583987641
1237318.6856503785,8.042564,-5.5563326,-3.098816,10.254673483723154
1237319.8428251892,-0.54797596,-0.7418015,1.6893932,1.9247328392133833
1237321.0,-8.44218,0.6221561,14.972425,17.199738130151637
1237322.8997763249,-7.860703,-2.4479449,21.615139,23.130009076456627
1237324.0569511356,0.7322299,-6.8365383,15.293076,16.767605377500892
1237325.2141259464,10.191396,-8.243568,1.5936768,13.204573887191447
1237326.3713007572,7.9635983,-5.022714,-2.5986981,9.767281383501885
1237327.5284755677,-1.4094229,-0.8183746,4.735565,5.008171898626741
1237328.6856503785,-8.497216,-0.9739136,18.801079,20.65506618278339
1237329.8428251892,-6.5924616,-3.8095098,22.045862,23.32365636401837
1237331.0,2.4551237,-7.57834,12.440729,14.772630354454236
1237331.8997763249,9.58599,-6.9896846,-1.6032485,11.97152040637819
1237333.0569511356,4.711636,-2.9289196,-2.4790528,6.076494598446377
1237334.2141259464,-4.3048415,0.46661708,7.518517,8.676260122815531
1237335.3713007572,-8.57379,-1.6295704,20.411507,22.19898629811067
1237336.5284755677,-4.182803,-5.604191,20.844622,21.986383604953637
1237337.6856503785,5.4821525,-9.004513,8.932726,13.817700394475965
1237338.8428251892,9.583597,-7.2337613,-2.8834543,12.348560349448643
1237340.0,2.2206187,-2.3881223,-0.64129937,3.3234831746993057
1237340.8997763249,-6.932255,0.7226582,11.172488,13.168252821433686
1237342.0569511356,-9.456773,-1.5027462,22.263617,24.235458395455048
1237343.2141259464,-2.9097762,-5.5515466,18.667076,19.691272015180584
1237344.3713007572,8.042564,-8.674292,4.790602,12.762289955872497
1237345.5284755677,10.122002,-6.489567,-3.9387267,12.652389985800545
1237346.6856503785,1.457281,-1.8449322,1.3783151,2.725288104117774
1237347.8428251892,-7.418015,-0.09332342,14.948497,16.688116081809667
1237349.0,-8.79633,-2.421623,24.075048,25.745827149760267
1237349.8997763249,-1.3352427,-6.271812,17.011183,18.179627220895817
1237351.0569511356,8.834617,-7.9300976,1.5266753,11.969446225863786
1237352.2141259464,7.755415,-4.405344,-4.3909864,9.941543096800716
1237353.3713007572,-1.1653463,-0.15314612,2.995921,3.2182337347115957
1237354.5284755677,-8.238783,-0.46901,17.91331,19.722682141567077
1237355.6856503785,-6.97772,-3.874118,23.54143,24.857519850564817
1237356.8428251892,1.9167194,-8.267497,13.737685,16.147733867715633
1237358.0,10.009535,-8.296212,-1.3615648,13.071793418263924
1237359.8997763249,5.204575,-3.8621538,-3.7401154,7.482800018094604
1237361.0569511356,-4.350307,0.4139731,5.783659,7.248948623769768
1237362.2141259464,-10.366077,-0.1172525,20.89248,23.323057712681784
1237363.3713007572,-7.10933,-3.5032175,22.79963,24.137900365154096
1237364.5284755677,3.852582,-8.068886,10.430686,13.738577793145694
1237365.6856503785,11.177274,-7.683628,-3.3883579,13.98036346351383
1237366.8428251892,4.8456388,-3.4505734,-2.6321988,6.505009046233098
1237368.0,-4.9078546,-0.08135887,8.889653,10.15478146002551
1237368.8997763249,-10.124394,-1.2419193,23.412212,25.53776396139436
1237370.0569511356,-5.723836,-4.5225964,21.53378,22.735871609432284
1237371.2141259464,5.6448703,-8.262712,7.0279713,12.228219448979063
1237372.3713007572,9.863567,-6.147381,-4.5225964,12.471332138947426
1237373.5284755677,2.28762,-1.6367491,-1.222776,3.0671377580615466
1237374.6856503785,-6.30292,0.067001425,12.098543,13.642068480996606
1237375.8428251892,-8.820259,-2.500589,24.228195,25.90473599811484
1237377.0,-2.371372,-6.7838945,18.729292,20.060683153142573
1237377.8997763249,8.530717,-9.478309,2.969599,13.093127672728581
1237379.0569511356,8.449359,-5.8961253,-4.524989,11.253065649604203
1237380.2141259464,-0.82076746,-0.89494765,1.4405307,1.8840698546704324
1237381.3713007572,-8.961441,0.30389932,16.228703,18.541051228433258
1237382.5284755677,-9.394557,-2.2254045,24.68524,26.50605968967227
1237383.6856503785,-0.4091873,-7.0207925,15.470151,16.993661569459906
1237384.8428251892,10.916447,-8.961441,-0.5360114,14.133773315050018
1237386.0,8.456537,-5.2739697,-4.4867024,10.92969683271466
1237386.8997763249,-1.3448143,-0.8542682,3.6563635,3.988394878036524
1237388.0569511356,-9.203125,-0.48097453,19.672098,21.723726337480354
1237389.2141259464,-8.595325,-2.8092742,24.544058,26.156880863240833
1237390.3713007572,1.3113136,-7.367764,12.907347,14.91988928563647
1237391.5284755677,10.440258,-7.5017667,-2.3976939,13.07763077800754
1237392.6856503785,5.5252247,-3.0748868,-3.6348274,7.2934907311996415
1237393.8428251892,-3.7401154,0.2368979,6.1856675,7.232362424609114
1237395.0,-9.56924,-1.0289505,22.206186,24.20214432598166
1237396.8997763249,-6.6714277,-4.477131,22.18465,23.594731301076273
1237398.0569511356,4.2976627,-9.112194,8.700614,13.31174925220586
1237399.2141259464,9.669742,-7.3342633,-3.9770133,12.771529402881542
1237400.3713007572,2.1536174,-2.2445478,-1.8975761,3.6437422778455133
1237401.5284755677,-6.901147,0.75376606,9.777423,11.991329939157955
1237402.6856503785,-10.966698,-0.75376606,24.063084,26.455030521386057
1237403.8428251892,-5.3768644,-4.735565,20.059748,21.300932760532255
1237405.0,7.5017667,-9.145695,4.929391,12.814801453207727
1237405.8997763249,10.813552,-6.8580747,-4.4388447,13.552469801412663
1237407.0569511356,2.060294,-2.0220072,0.11485959,2.8890339576929183
1237408.2141259464,-6.982506,-0.1459674,13.622826,15.308758432615454
1237409.3713007572,-10.256004,-1.4094229,25.328932,27.36287424997024
1237410.5284755677,-3.278284,-5.5252247,17.71709,18.845968588487196
1237411.6856503785,8.935119,-8.439787,1.7396442,12.41340880226393
1237412.8428251892,8.707792,-4.7714586,-4.563276,10.927760362441791
1237414.0,-0.42115182,-0.38765112,1.715715,1.8086791333875578
1237414.8997763249,-8.133494,-0.20100428,17.317476,19.133455055979574
1237416.0569511356,-8.868117,-2.7374868,24.93171,26.60314824658847
1237417.2141259464,-0.13400285,-7.733879,14.4412,16.382280018069803
1237418.3713007572,9.99757,-8.77958,-1.170132,13.356707669883471
1237419.5284755677,5.8698034,-4.0153,-4.0033355,8.161122543511512
1237420.6856503785,-3.7807949,0.4977249,4.225876,5.692114556061044
1237421.8428251892,-10.760908,0.54558307,20.181787,22.877922291679017
1237423.0,-9.140909,-2.237369,23.677826,25.479432518694722
1237423.8997763249,2.1751535,-7.7123427,11.153344,13.733484810969923
1237425.0569511356,11.349563,-7.9827414,-2.8810613,14.171706134569707
1237426.2141259464,5.3744717,-3.3668218,-2.4048727,6.782613640055095
1237427.3713007572,-4.563276,0.19621846,7.142831,8.478326735316456
1237428.5284755677,-11.143773,-0.17468229,23.383497,25.903708663567414
1237429.6856503785,-8.207675,-2.916955,21.897503,23.566399661650888
1237430.8428251892,4.2809124,-7.9827414,7.681235,11.876520633627203
1237432.0,10.634084,-6.3292418,-4.345521,13.115891012179242
1237433.8997763249,3.4290373,-1.5841051,-1.720501,4.150639645119569
1237435.0569511356,-5.415151,0.46422416,10.378042,11.715080886502351
1237436.2141259464,-9.708028,-1.2299547,25.197323,27.03079137907666
1237437.3713007572,-4.457988,-5.3649,20.009497,21.19046434628446
1237438.5284755677,7.946848,-9.535739,4.6709566,13.262750354670352
1237439.6856503785,9.267733,-6.0397,-4.276127,11.859768681109172
1237440.8428251892,-0.10050214,-0.7394086,0.42354473,0.8580302420132477
1237442.0,-8.6455765,1.0457008,14.005692,16.492388898499115
1237442.8997763249,-11.229918,-0.54079723,25.18775,27.583079414619387
1237444.0569511356,-3.228033,-5.4701877,16.657034,17.826943994961006
1237445.2141259464,10.239254,-8.918368,1.0337363,13.617937472241445
1237446.3713007572,9.243804,-5.206968,-3.8980472,11.302884592743034
1237447.5284755677,-0.70112205,-0.39961565,2.6226273,2.7439822797216484
1237448.6856503785,-9.162445,0.5144752,18.10235,20.295569926265685
1237449.8428251892,-10.502474,-0.95955616,24.97239,27.107987207776418
1237451.0,-0.72505116,-6.1593456,13.615647,14.961586835408392
1237451.8997763249,11.270597,-7.839167,-1.4596739,13.806141527763621
1237453.0569511356,7.5879116,-3.5319324,-3.280677,8.98964907579341
1237454.2141259464,-2.0650797,0.2943277,5.0394645,5.45411637289668
1237455.3713007572,-9.250982,-0.19861138,21.239452,23.16752977131773
1237456.5284755677,-8.083243,-3.0342073,23.474428,25.01187720391267
1237457.6856503785,3.0389934,-8.600112,10.382828,13.820293939543093
1237458.8428251892,10.854231,-7.9635983,-3.0102785,13.794745562448266
1237460.0,3.823867,-2.6968074,-2.1033661,5.1301927777631295
1237460.8997763249,-5.5898333,0.93802,7.425194,9.341285981053407
1237462.0569511356,-11.505102,0.47140288,22.82595,25.56586759936334
1237463.2141259464,-7.872668,-3.0342073,20.80873,22.45414348378707
1237464.3713007572,5.8363028,-8.863332,6.982506,12.703404053856897
1237465.5284755677,11.744393,-7.496981,-3.1490672,14.284681140400924
1237466.6856503785,3.2639267,-2.4814458,0.28475606,4.109972843586348
1237467.8428251892,-6.195239,0.24407662,11.112665,12.725245894118377
1237469.0,-11.170095,-0.2656128,24.795313,27.196490936084345
1237469.8997763249,-5.6568346,-4.0464077,18.243532,19.524334887555078
1237471.0569511356,8.767615,-8.918368,3.412287,12.963489620546543
1237472.2141259464,11.222739,-5.90809,-3.9147975,13.273320518100482
1237473.3713007572,2.2230117,-1.1462029,0.6652284,2.5880670258847354
1237474.5284755677,-6.3771,0.016750356,14.400521,15.749371100328645
1237475.6856503785,-9.447201,-1.4118158,24.89103,26.66094906503575
1237476.8428251892,-2.0698655,-6.31967,16.188023,17.50070457854538
1237478.0,10.370864,-9.2988405,1.4907818,14.008771720823617
1237479.8997763249,7.674056,-4.7403507,-2.187118,9.281462459981752
1237481.0569511356,-2.2086542,0.1483603,3.6850784,4.298833210062969
1237482.2141259464,-9.9425335,0.8159817,17.817595,20.42024706308379
1237483.3713007572,-10.241647,-1.170132,23.122671,25.316367360746565
1237484.5284755677,0.51926106,-6.9370403,11.4213505,13.37308518690084
1237485.6856503785,12.668056,-8.860939,-1.8090385,15.564976809341516
1237486.8428251892,7.6955924,-4.144517,-1.9430413,8.954025521726663
1237488.0,-2.495803,0.10289505,5.659228,6.185990750244256
1237488.8997763249,-10.193789,0.8518753,21.440456,23.755676778218866
1237490.0569511356,-9.136123,-1.3137065,22.416763,24.24264489773012
1237491.2141259464,3.7185793,-7.370157,9.820495,12.829231008133826
1237492.3713007572,12.94324,-7.343835,-1.9741492,15.011883268553804
1237493.5284755677,5.8482676,-2.4623024,-0.36850783,6.356175347724984
1237494.6856503785,-3.7161863,0.33500713,8.664721,9.433963133344307
1237495.8428251892,-9.88271,-0.3230426,23.364355,25.370561642020064
1237497.0,-6.561354,-3.7185793,19.478271,20.887370334083357
1237497.8997763249,6.8389316,-9.258162,5.568297,12.786339606311556
1237499.0569511356,10.490509,-6.5661397,-2.94567,12.72171141741146
1237500.2141259464,1.251491,-0.99066395,0.7346228,1.7570758216965032
1237501.3713007572,-7.386907,1.3184924,11.933433,14.096511639444554
1237502.5284755677,-11.244275,0.3230426,24.015226,26.5192223986322
1237503.6856503785,-4.7403507,-4.2737336,16.980076,18.13997531995387
1237504.8428251892,10.246432,-9.440022,3.2998202,14.317548583589163
1237506.0,10.770479,-6.1282377,-1.7252867,12.511399977394184
1237506.8997763249,0.40679437,-0.98827106,3.0772798,3.257577675971098
1237508.0569511356,-8.561825,0.8829831,15.336148,17.586413561707648
1237509.2141259464,-11.526638,0.33022133,23.326069,26.020721064232482
1237510.3713007572,-2.782952,-4.7547083,13.388321,14.477541643919864
1237511.5284755677,11.598426,-8.334499,0.39722276,14.287937051216982
1237512.6856503785,9.277305,-4.381415,-1.2299547,10.33334282937047
1237513.8428251892,-0.5910483,-0.20100428,4.7212076,4.7623042758531255
1237515.0,-8.188532,0.067001425,18.643147,20.36230526167371
1237516.8997763249,-8.770008,-1.8616825,22.057827,23.81022120881701
1237518.0569511356,1.3878866,-7.449123,10.957127,13.321947859743242
1237519.2141259464,11.074379,-8.059315,-0.58626246,13.709052927787218
1237520.3713007572,4.321592,-2.706379,0.33740005,5.110233213841126
1237521.5284755677,-5.2524333,1.1031306,7.3270845,9.082462219120181
1237522.6856503785,-11.105487,0.70830077,20.56226,23.38033506593846
1237523.8428251892,-8.767615,-2.1009734,18.865688,20.90931241645876
1237525.0,4.5489182,-8.272284,7.0136137,11.76070221116813
1237525.8997763249,12.0794,-7.5663753,-1.5171037,14.333999552706976
1237527.0569511356,3.7688303,-2.3881223,1.5817122,4.73381700465747
1237528.2141259464,-5.5826545,0.51926106,10.457008,11.865271999700072
1237529.3713007572,-10.981055,0.64129937,22.56273,25.1012274370774
1237530.5284755677,-6.6594634,-2.785345,17.51848,18.947394043914446
1237531.6856503785,7.8774533,-8.372786,4.9820347,12.529105540599495
1237532.8428251892,11.770715,-6.118666,-1.0792016,13.309864061072282
1237534.0,2.5460541,-1.3113136,2.940884,4.1049644991312375
1237534.8997763249,-6.0516644,0.07896597,13.041349,14.377261956799925
1237536.0569511356,-9.832459,-0.8159817,22.66084,24.715516292948767
1237537.2141259464,-3.7161863,-5.0873227,14.4388075,15.753414070997412
1237538.3713007572,9.286877,-8.76283,2.2062612,12.957656520553956
1237539.5284755677,7.518517,-4.42688,-0.34936458,8.73197686800919
1237540.6856503785,-2.0339718,0.2943277,4.630277,5.06587950655279
1237541.8428251892,-8.906404,0.8829831,15.998983,18.332243408824535
1237543.0,-9.614705,-0.911698,21.141342,23.242850234882834
1237543.8997763249,-0.43550926,-6.2837768,11.440494,13.059878336025951
1237545.0569511356,11.725249,-8.829831,0.7106937,14.69532119879595
1237546.2141259464,6.99447,-4.3598785,1.2155973,8.331196067278068
1237547.3713007572,-3.153853,-0.13639577,6.8341455,7.528010179778793
1237548.5284755677,-10.224896,0.49533197,18.911152,21.50408151813102
1237549.6856503785,-9.753493,-1.1127023,19.253338,21.611565335526215
1237550.8428251892,1.8042527,-6.8891826,8.305784,10.940850632206622
1237552.0,11.794644,-7.396479,-0.68915755,13.939026752714804
1237553.8997763249,5.34815,-2.8786685,1.9310769,6.373264371505851
1237555.0569511356,-3.7114005,-0.18903974,8.978191,9.71689988253355
1237556.2141259464,-9.373021,-0.5814767,20.576616,22.618328051174338
1237557.3713007572,-6.8341455,-3.5534685,17.664448,19.27084342317083
1237558.5284755677,5.281148,-8.808294,6.2789907,12.037536774565902
1237559.6856503785,9.229446,-6.4153867,0.03828653,11.240165738806182
1237560.8428251892,0.3565433,-1.1629534,3.7066147,3.9010993667942553
1237562.0,-7.573554,0.8159817,11.665427,13.932219256743696
1237562.8997763249,-10.854231,-0.15793194,20.626867,23.308944963998737
1237564.0569511356,-5.4582233,-4.213911,13.69222,15.330562156587211
1237565.2141259464,8.255533,-9.205518,2.7997024,12.678080307798131
1237566.3713007572,8.57379,-5.8386955,0.2368979,10.375758320279278
1237567.5284755677,-1.3352427,-1.0839874,5.0968943,5.379240955435491
1237568.6856503785,-9.073908,0.37090075,15.080107,17.603493996654855
1237569.8428251892,-11.201202,-0.27279153,20.672333,23.51354276000392
1237571.0,-3.280677,-5.049036,11.658248,13.121370070885472
1237572.8997763249,10.198574,-8.427822,1.304135,13.29435456858982
1237574.0569511356,7.6764493,-4.453202,1.3519931,8.977013270053805
1237575.2141259464,-1.9191123,-0.6676214,6.6857853,6.987734642317591
1237576.3713007572,-8.939904,-0.4450809,17.350977,19.523738970578606
1237577.5284755677,-9.136123,-2.2756555,18.71972,20.954122942853257
1237578.6856503785,0.24886245,-7.4850163,8.518753,11.342687256787727
1237579.8428251892,8.959048,-7.7003784,0.2368979,11.815942162371774
1237581.0,2.3139422,-2.6202343,2.998314,4.605414545340444
1237581.8997763249,-6.4991384,0.56711924,9.313198,11.370843467480183
1237583.0569511356,-11.287348,0.07657306,19.052334,22.145011157237597
1237584.2141259464,-8.430215,-2.8427749,15.972662,18.28321157358682
1237585.3713007572,4.2234826,-8.669506,5.333792,11.02032107770925
1237586.5284755677,9.851603,-7.188296,-0.016750356,12.195325400646395
1237587.6856503785,1.1797037,-2.2254045,4.307235,4.989629179973091
1237588.8428251892,-7.4371586,0.27039862,11.768322,13.924002519065265
1237590.0,-11.737214,0.28954187,20.23443,23.393977524165894
1237590.8997763249,-6.712107,-3.4505734,13.962619,15.871785233785062
1237592.0569511356,7.623805,-8.7389,3.5199678,12.119445086350357
1237593.2141259464,9.729565,-5.989449,0.82076746,11.454762923614823
1237594.3713007572,0.33979294,-1.5960697,5.6329055,5.864513799221737
1237595.5284755677,-7.6429486,-0.42354473,14.345484,16.259980462313255
1237596.6856503785,-10.404365,-1.2538838,19.684061,22.299894463625797
1237597.8428251892,-3.512789,-5.939198,11.103093,13.072583279840828
1237599.0,8.068886,-8.45893,1.6558924,11.806879251786805
1237599.8997763249,4.4675593,-3.8956544,2.2828343,6.351892768656626
1237601.0569511356,-4.78103,0.09810923,7.5903044,8.971097712463651
1237602.2141259464,-10.789622,0.4115802,16.700106,19.886650838568876
1237603.3713007572,-10.150716,-1.7516087,17.15715,20.01182061865116
1237604.5284755677,0.45943835,-7.4395514,7.585519,10.634759382800048
1237605.6856503785,10.354114,-8.205282,0.40440148,13.217332180948853
1237606.8428251892,3.8166883,-3.3404996,3.6348274,6.240033444201066
1237608.0,-5.8721967,0.17707519,10.105251,11.688889916472199
1237609.8997763249,-11.935825,0.70830077,19.550058,22.916596087001484
1237611.0569511356,-9.186374,-1.9238981,15.975055,18.528174044413674
1237612.2141259464,4.2593765,-7.8774533,5.3744717,10.44420914749097
1237613.3713007572,10.686728,-6.506317,-0.18425392,12.512883990411979
1237614.5284755677,2.2924058,-1.7683591,4.192375,5.094921628352242
1237615.6856503785,-6.5709257,0.4091873,11.902325,13.601832200370168
1237616.8428251892,-11.375885,0.0,20.406721,23.36332642208866
1237618.0,-6.7025356,-4.0535865,14.175588,16.19576617909735
1237618.8997763249,6.5206747,-8.703007,4.0176926,11.593247310972187
1237620.0569511356,6.6498914,-4.917426,1.5051392,8.406401019975588
1237621.2141259464,-3.0940301,-0.03828653,6.2981343,7.017192015252393
1237622.3713007572,-10.519224,1.3256711,14.4388075,17.913420651835523
1237623.5284755677,-12.26844,0.18664683,18.35839,22.081212386661406
1237624.6856503785,-3.7449012,-5.1519313,9.830067,11.71310797107967
1237625.8428251892,9.195946,-8.135887,1.536247,12.374091278016902
1237627.0,5.465402,-3.75208,2.914562,7.241781203533285
1237627.8997763249,-4.613527,0.3278284,8.868117,10.001779939853934
1237629.0569511356,-11.617569,1.2155973,17.903738,21.377310884163432
1237630.2141259464,-10.827909,-0.81358874,17.097328,20.253991327383346
1237631.3713007572,1.1031306,-6.872432,7.142831,9.973327098307834
1237632.5284755677,11.447672,-7.523303,0.15314612,13.699369911914346
1237633.6856503785,4.8719606,-2.8786685,3.7927594,6.812323853659114
1237634.8428251892,-4.843246,0.105287954,10.543153,11.602852776415915
1237636.0,-10.93559,0.13160995,19.71517,22.545340493235827
1237636.8997763249,-8.083243,-3.177782,15.618511,17.871066048048
1237638.0569511356,4.457988,-8.540289,5.5060816,11.096266389985578
1237639.2141259464,7.85831,-5.728622,0.6843717,9.748769701800576
1237640.3713007572,-1.3376356,-0.64129937,5.3002915,5.503964377185049
1237641.5284755677,-9.47113,1.4883888,12.574732,15.812700261773427
1237642.6856503785,-12.773343,0.72744405,18.987726,22.89587746500678
1237643.8428251892,-6.5158887,-3.902833,12.074615,14.264825213612037
1237645.0,7.6118407,-8.59054,3.22564,11.922342460413411
1237646.8997763249,7.3079414,-4.9628916,2.160796,9.094247626538465
1237648.0569511356,-2.943277,-0.31107804,7.7267003,8.274149295952988
1237649.2141259464,-10.959519,1.4548881,15.697477,19.199961985910587
1237650.3713007572,-12.603447,0.35415038,18.425392,22.326382804366833
1237651.5284755677,-3.2423904,-4.9772487,9.17441,10.929588234501969
1237652.6856503785,9.504631,-7.4850163,1.3735292,12.175798204663188
1237653.8428251892,5.6807637,-3.2471762,3.2830698,7.320777062631819
1237655.0,-4.118195,0.2368979,9.253376,10.131170616983281
1237655.8997763249,-10.947555,0.6460852,17.75777,20.871147115972903
1237657.0569511356,-9.947319,-1.9645776,16.64746,19.492220111772358
1237658.2141259464,1.1270597,-7.492195,7.1236873,10.399527404337679
1237659.3713007572,8.044957,-6.30292,1.1773108,10.287574756863041
1237660.5284755677,0.31825677,-1.3328499,4.824103,5.0149522412670935
1237661.6856503785,-8.138281,1.4166015,10.899696,13.676320789495222
1237662.8428251892,-12.323477,0.84708947,18.279425,22.06180011400563
1237664.0,-7.968384,-3.0557437,13.283032,15.788339122421005
1237664.8997763249,5.522832,-8.49961,4.692493,11.169804564421574
1237666.0569511356,8.466109,-5.8004093,2.1512244,10.485586109825375
1237667.2141259464,-1.2132044,-1.0241647,7.231368,7.403611375560541
1237668.3713007572,-9.667349,1.3160994,13.831009,16.925913986445824
1237669.5284755677,-12.840344,0.7441944,18.38232,22.4351944035644
1237670.6856503785,-5.821945,-3.7472942,10.24404,12.364368682871707
1237671.8428251892,7.6764493,-7.575947,2.4383733,11.057509265310719
1237673.0,6.8030376,-3.9698346,2.988742,8.424576314624666
1237673.8997763249,-2.6704855,-0.11485959,8.559432,8.967082117040594
1237675.0569511356,-9.789387,0.72744405,16.056414,18.819396994086855
1237676.2141259464,-10.172253,-1.5027462,16.82693,19.720003814972333
1237677.3713007572,-1.2012398,-6.6594634,8.238783,10.661565323822417
1237678.5284755677,7.70995,-7.0471144,2.1464386,10.663599253195766
1237679.6856503785,1.6319634,-2.2852273,5.0945015,5.817174046313819
1237680.8428251892,-7.238547,1.0815945,10.43308,12.744236643284653
1237682.0,-12.199045,1.0098072,16.94179,20.901211876283558
1237683.8997763249,-9.286877,-2.3259068,13.409857,16.47665595974694
1237685.0569511356,2.785345,-7.8702745,5.104073,9.785240347774
1237686.2141259464,8.523539,-6.3723145,1.7492158,10.785029674803907
1237687.3713007572,0.19382556,-1.7635733,6.688178,6.919500277611541
1237688.5284755677,-8.269891,0.98109233,12.711128,15.196263170406397
1237689.6856503785,-12.144009,0.6532639,17.98749,21.712980099821035
1237690.8428251892,-6.9131117,-3.2615337,11.354349,13.687584033229296
1237692.0,6.140202,-7.860703,3.5606472,10.591078355761553
1237692.8997763249,7.6931996,-4.769066,2.6465564,9.430459764835282
1237694.0569511356,-1.4883888,-0.5431901,7.7171288,7.87809835052171
1237695.2141259464,-9.155267,0.95955616,14.560845,17.226661573836875
1237696.3713007572,-11.076772,-0.6748001,17.224152,20.489549659132287
1237697.5284755677,-3.823867,-5.446259,9.246197,11.391920597141599
1237698.6856503785,6.3651357,-7.075829,2.8786685,9.943291248351711
1237699.8428251892,2.318728,-2.6369848,4.611134,5.795924873509925
1237701.0,-6.5302463,1.14381,9.39695,11.500221187319125
1237701.8997763249,-12.007613,1.6295704,15.539545,19.705728315729672
1237703.0569511356,-10.215324,-1.3711363,14.118157,17.4801377641826
1237704.2141259464,0.7226582,-6.944219,6.0755935,9.255120138130597
1237705.3713007572,8.951869,-6.870039,2.1919038,11.49512230135619
1237706.5284755677,1.9765421,-2.4479449,6.5972476,7.309092200965465
1237707.6856503785,-7.049507,0.8925547,12.225368,14.140432297881317
1237708.8428251892,-12.010006,1.1150951,18.009026,21.675070903477014
1237710.0,-7.8008804,-2.3474429,12.098543,14.585573897063961
1237710.8997763249,5.0274997,-7.4826236,4.192375,9.941902097355518
1237712.0569511356,8.88726,-5.1758604,2.2445478,10.526676399242687
1237713.2141259464,0.28236315,-0.82076746,7.3390493,7.3901984276271815
1237714.3713007572,-7.810452,1.3232782,13.84058,15.947284420091693
1237715.5284755677,-10.605369,0.023929082,17.953989,20.85234148097636
1237716.6856503785,-4.3622713,-4.5943837,10.387614,12.167181148097754
1237717.8428251892,6.767144,-7.5017667,3.8597608,10.81519740786924
1237719.0,4.0296574,-3.2304258,4.5417395,6.877585862534953
1237719.8997763249,-5.2261114,1.067237,9.373021,10.784468361760814
1237721.0569511356,-11.505102,2.4623024,14.962854,19.03463435332462
1237722.2141259464,-11.060021,-0.040679436,14.72117,18.412999905117424
1237723.3713007572,-1.1605604,-5.577869,6.8413243,8.902990576260297
1237724.5284755677,8.540289,-6.750394,2.526911,11.175403105064174
1237725.6856503785,2.8810613,-2.68245,6.645106,7.723566920024303
1237726.8428251892,-6.2909555,1.0648441,11.809001,13.422463212029529
1237728.0,-11.756357,1.8425392,17.22176,20.933129200207638
1237729.8997763249,-8.774794,-1.2754201,12.550803,15.367054438594568
1237731.0569511356,3.3141778,-6.633141,4.76428,8.813665408573998
1237732.2141259464,8.719757,-5.2978983,2.574769,10.52289522610355
1237733.3713007572,0.7968384,-1.1414171,7.829595,7.952379662460286
1237734.5284755677,-7.305548,1.2849916,13.134672,15.084490165065526
1237735.6856503785,-10.504867,0.27997026,17.496944,20.410136289924903
1237736.8428251892,-5.1830387,-4.0679436,10.227289,12.165915320599582
1237738.0,5.7429795,-7.5448394,3.9243693,10.261924259708561
1237738.8997763249,4.22109,-3.7640445,4.55849,7.263983952775519
1237740.0569511356,-4.742744,0.6484781,9.262947,10.426712407107267
1237741.2141259464,-10.894911,2.5173392,14.132515,18.021211462357424
1237742.3713007572,-11.25624,0.57908374,14.694849,18.519634554934754
1237743.5284755677,-2.677664,-4.6589923,7.4036574,9.148236805249963
1237744.6856503785,7.599876,-6.606819,3.3644288,10.6173232815247
1237745.8428251892,3.3333209,-2.9911351,6.9633627,8.279271556156381
1237747.0,-5.666406,0.89734054,11.459637,12.815485054157433
1237747.8997763249,-11.234703,2.0674727,15.845838,19.534164348282175
1237749.0569511356,-9.334735,-0.6389065,12.469444,15.589500078742207
1237750.2141259464,1.2754201,-5.8506603,5.3385777,8.022302302731891
1237751.3713007572,7.57834,-5.228504,3.4027152,9.815648830613645
1237752.5284755677,0.48576033,-1.2825987,8.277069,8.38992811376858
1237753.6856503785,-7.5137315,1.509925,12.648912,14.789557442447736
1237754.8428251892,-10.863803,0.9140909,16.39142,19.685944920492688
1237756.0,-6.4704237,-3.0581365,10.162681,12.429749266092012
1237756.8997763249,3.9650488,-6.824574,4.618313,9.144683550228867
1237758.0569511356,3.95787,-3.6276486,5.465402,7.661278504504713
1237759.2141259464,-4.4603806,0.60779864,9.935354,10.907597049256918
1237760.3713007572,-10.275147,2.502982,13.57736,17.210121130704835
1237761.5284755677,-10.490509,0.58626246,13.974584,17.483806242467406
1237762.6856503785,-2.8547394,-4.249805,7.1021514,8.755051918090453
1237763.8428251892,7.391693,-6.707321,3.6850784,10.639787743063136
1237765.0,4.189982,-3.2950344,7.420408,9.136501285720446
1237766.8997763249,-4.8073525,0.5264398,12.02197,12.95822285667214
1237768.0569511356,-10.390007,1.8736471,15.470151,18.72934518017617
1237769.2141259464,-8.772401,-0.67001426,12.175117,15.021232052567903
1237770.3713007572,0.7705164,-5.43908,5.491724,7.767645670423243
1237771.5284755677,7.3557997,-5.283541,3.933941,9.874182827792996
1237772.6856503785,1.0983448,-1.3783151,8.734115,8.910155927243924
1237773.8428251892,-6.855682,1.5745336,12.560374,14.39592049028227
1237775.0,-10.361292,1.1629534,15.541938,18.715252317713475
1237775.8997763249,-6.4153867,-2.5316968,9.923389,12.084714495716815
1237777.0569511356,3.3931437,-6.405815,4.9604983,8.78375963738635
1237778.2141259464,3.9770133,-3.4816813,5.9296265,7.943501110508441
1237779.3713007572,-4.036836,0.6676214,10.33497,11.115456271585705
1237780.5284755677,-9.964069,2.8284173,13.168173,16.753608435725997
1237781.6856503785,-10.452223,1.0217718,13.345248,16.982008934001545
1237782.8428251892,-3.5630403,-3.4457877,7.001649,8.578566183931693
1237784.0,6.4441013,-6.1593456,4.166053,9.839714293804981
1237784.8997763249,4.034443,-2.9839563,7.872668,9.335932034820235
1237786.0569511356,-4.6661706,0.86623275,12.244511,13.13208120880304
1237787.2141259464,-10.342149,2.316335,15.175823,18.510295986227636
1237788.3713007572,-8.987762,-0.07418015,12.002827,14.995106683689418
1237789.5284755677,-0.09571633,-4.57524,5.666406,7.283552679171386
1237790.6856503785,6.618784,-4.6039553,4.300056,9.137570117169558
1237791.8428251892,0.8997334,-0.8829831,9.0428,9.130247049557923
1237793.0,-6.8580747,2.1703677,12.488587,14.412095260598036
1237793.8997763249,-10.2344675,1.742037,15.293076,18.483971203713264
1237795.0569511356,-6.300527,-1.9191123,9.82528,11.82859922290633
1237796.2141259464,3.2471762,-5.8506603,5.283541,8.525853899670317
1237797.3713007572,4.3096275,-3.3357139,6.5039244,8.48533493813443
1237798.5284755677,-3.6922572,0.69633627,10.87816,11.50877979707099
1237799.6856503785,-9.775029,3.0581365,13.1514225,16.669232273172618
1237800.8428251892,-10.354114,1.3759222,13.029385,16.699272801642405
1237802.0,-3.6731138,-2.938491,6.65707,8.151262192429552
1237803.8997763249,6.2789907,-5.8363028,4.0440145,9.478512956164833
1237805.0569511356,4.505846,-3.1466742,8.028207,9.72914766726822
1237806.2141259464,-4.1014442,0.55754757,12.589089,13.252089105814507
1237807.3713007572,-9.729565,2.0363648,15.130358,18.103561801371242
1237808.5284755677,-8.34407,-0.37329367,11.756357,14.42133080684342
1237809.6856503785,0.107680865,-4.63267,5.4773664,7.174591917136201
1237810.8428251892,6.613998,-4.685314,4.3526998,9.200170236007594
1237812.0,1.0552725,-1.0768087,9.140909,9.264412251834056
1237812.8997763249,-6.707321,2.0172215,12.591482,14.408426580769575
1237814.0569511356,-10.023892,1.6893932,14.85996,18.004190384837365
1237815.2141259464,-6.197632,-1.8688612,9.399343,11.412753104485281
1237816.3713007572,2.9743848,-5.620941,5.0203214,8.102195358250134
1237817.5284755677,4.2809124,-3.3213565,6.439316,8.415605178739197
1237818.6856503785,-3.5773976,0.62454903,10.988234,11.57277501371714
1237819.8428251892,-9.542917,3.0126712,13.122708,16.5029972393339
1237821.0,-10.150716,1.430959,12.950418,16.516597874473455
1237822.8997763249,-3.876511,-2.658521,6.5422106,8.05577997311957
1237824.0569511356,5.597012,-5.491724,4.108623,8.852477550180458
1237825.2141259464,4.23784,-2.81406,8.0306,9.506248361430497
1237826.3713007572,-4.0799084,0.7609448,12.414407,13.089774280051074
1237827.5284755677,-9.542917,2.3091564,15.111215,18.020773760434786
1237828.6856503785,-8.243568,-0.026321989,11.785072,14.38210792140404
1237829.8428251892,-0.24646953,-4.0966587,5.604191,6.946244776711019
1237831.0,6.0516644,-4.189982,4.656599,8.709908462053567
1237831.8997763249,0.80162424,-0.69155043,9.229446,9.289968616002142
1237833.0569511356,-6.6809993,2.3474429,12.433551,14.308718680754119
1237834.2141259464,-9.88271,2.0746512,14.867138,17.972310003358096
1237835.3713007572,-6.046879,-1.4859959,9.373021,11.252841957563378
1237836.5284755677,2.9480627,-5.2883267,5.285934,8.037323635478428
1237837.6856503785,4.5034533,-3.1801748,6.951398,8.872234078192479
1237838.8428251892,-3.2208543,0.7609448,11.177274,11.656946147321413
1237840.0,-9.217482,3.3237493,13.117922,16.373428517804648
1237840.8997763249,-9.928176,1.902362,12.804451,16.313847653984666
1237842.0569511356,-3.5630403,-2.079437,6.403422,7.617291364158068
1237843.2141259464,6.0038066,-5.135181,4.374236,9.03048825793271
1237844.3713007572,5.0418572,-2.6944146,8.286641,10.067204831767654
1237845.5284755677,-3.2304258,0.8279462,12.593875,13.027925133152443
1237846.6856503785,-8.77958,2.5293038,15.24761,17.77548911847982
1237847.8428251892,-7.4874096,0.17468229,11.940612,14.095035698967058
1237849.0,0.36611494,-3.8884757,6.0229497,7.178454325794083
1237849.8997763249,6.355564,-3.9626558,5.448652,9.261945981513477
1237851.0569511356,1.0480938,-0.31107804,9.588383,9.650510800743021
1237852.2141259464,-6.350778,2.8547394,12.22776,14.071248447269928
1237853.3713007572,-9.67692,2.763809,14.627847,17.755430964363832
1237854.5284755677,-5.8243384,-0.87819725,9.351485,11.051896665859989
1237855.6856503785,3.3022132,-4.812138,5.8745894,8.280826333639089
1237856.8428251892,5.199789,-2.969599,7.7003784,9.754596422636283
1237858.0,-2.5293038,0.87580436,11.588854,11.893945855896833
1237859.8997763249,-8.736507,3.6132913,13.227996,16.25922220635786
1237861.0569511356,-9.7415285,2.4072654,12.916918,16.356621742923366
1237862.2141259464,-3.4577522,-1.6463208,6.6235695,7.651019237621072
1237863.3713007572,6.0684147,-4.687707,4.8791394,9.08879833496472
1237864.5284755677,5.3002915,-2.3546216,8.60729,10.378958233284246
1237865.6856503785,-2.7542372,1.1485959,12.502945,12.854132750535356
1237866.8428251892,-8.329713,2.864311,15.154287,17.528286015622264
1237868.0,-7.0686507,0.36850783,12.002827,13.934470809159233
1237868.8997763249,0.68915755,-3.7137933,6.5039244,7.521185505275231
1237870.0569511356,6.590069,-3.7784019,6.0181637,9.691420157163877
1237871.2141259464,1.4285661,-0.21775463,9.657777,9.76528928207888
1237872.3713007572,-5.757337,2.8475606,11.923861,13.543780559709402
1237873.5284755677,-9.1983385,2.8020954,14.187552,17.139072365329092
1237874.6856503785,-5.3696856,-0.92366254,9.054764,10.567659486676442
1237875.8428251892,3.7472942,-4.8288884,5.826731,8.444594196725454
1237877.0,5.7884445,-3.0940301,7.683628,10.10530807208124
1237877.8997763249,-1.6606783,0.703515,11.500317,11.640879557482112
1237879.0569511356,-7.891811,3.4003224,13.0006695,15.583975126131747
1237880.2141259464,-9.162445,2.2421548,12.747022,15.857623604868166
1237881.3713007572,-2.9911351,-1.6941789,6.707321,7.5369281759015205
1237882.5284755677,6.274205,-4.6446347,4.991606,9.265765501981209
1237883.6856503785,5.6185484,-2.268477,8.389536,10.348835118889834
1237884.8428251892,-2.1990826,1.0265576,12.26844,12.506174667792727
1237886.0,-7.889418,2.7757733,15.020284,17.191764459542043
1237886.8997763249,-7.025578,0.36372203,12.151187,14.040740203356814
1237888.0569511356,0.56711924,-3.5486827,6.781502,7.674864331938478
1237889.2141259464,6.125845,-3.48886,6.3148847,9.464454016894956
1237890.3713007572,1.1462029,0.110073775,9.631455,9.700042409233898
1237891.5284755677,-5.8195524,3.1562457,11.715678,13.456826819677746
1237892.6856503785,-9.250982,3.1873536,13.957833,17.04584972923456
1237893.8428251892,-5.541975,-0.5072965,9.33952,10.871866006805698
1237895.0,3.4266443,-4.398165,6.2789907,8.3971108565169
1237896.8997763249,5.912876,-2.9002047,7.939669,10.315601471695148
1237898.0569511356,-1.0433079,0.6676214,11.481173,11.547793865664097
1237899.2141259464,-7.260083,3.2878556,12.974348,15.226703702326526
1237900.3713007572,-8.734115,2.2780485,12.912132,15.754282674466687
1237901.5284755677,-2.7877378,-1.6080343,6.9609694,7.668921132679726
1237902.6856503785,6.3986363,-4.5345607,5.312256,9.472320257001353
1237903.8428251892,6.101916,-2.1584032,8.131102,10.39263695984952
1237905.0,-1.3424214,0.9571632,11.840109,11.954348068317787
1237905.8997763249,-6.987292,2.7279153,14.725956,16.52626852895638
1237907.0569511356,-6.219168,0.2656128,12.479015,13.945408425068548
1237908.2141259464,1.0768087,-3.6922572,7.3821216,8.323941345572665
1237909.3713007572,6.6259627,-3.6731138,6.7575727,10.151843945083424
1237910.5284755677,1.8018597,0.06460852,9.595561,9.763486239251923
1237911.6856503785,-5.156717,3.0533507,11.545781,13.008448778207203
1237912.8428251892,-8.89444,3.3500714,13.661112,16.642115922419297
1237914.0,-5.3744717,-0.2943277,9.317985,10.760874467686778
1237914.8997763249,3.43143,-4.1851964,6.3100986,8.313117651831647
1237916.0569511356,6.1737027,-2.7997024,7.829595,10.356422954890267
1237917.2141259464,-0.33500713,0.67001426,11.406993,11.43156324339778
1237918.3713007572,-6.6977496,3.1658175,13.251925,15.182087022317827
1237919.5284755677,-8.643184,2.390515,13.347641,16.080382827780003
1237920.6856503785,-2.8690968,-1.4620669,7.4060507,8.075824604262795
1237921.8428251892,6.0875583,-4.3120203,5.3529353,9.181819070832157
1237923.0,6.168917,-1.849718,7.697985,10.0367308767665
1237923.8997763249,-0.9499845,1.0839874,11.423743,11.514312978360802
1237925.0569511356,-6.6546774,2.7518444,14.63024,16.306480348544934
1237926.2141259464,-6.31967,0.36372203,12.751807,14.23654116663371
1237927.3713007572,0.84948236,-3.6635423,7.5903044,8.470884449011203
1237928.5284755677,6.482388,-3.6778998,6.6738205,10.004408087818303
1237929.6856503785,2.1296883,0.014357449,9.15048,9.395055221865313
1237930.8428251892,-4.8025665,2.8308103,11.4716015,12.754441301613747
1237932.0,-8.703007,3.3381069,13.570182,16.46314453653981
1237932.8997763249,-5.510867,-0.31347096,9.420879,10.918831451537903
1237934.0569511356,3.1394954,-4.213911,6.2239537,8.145617038769123
1237935.2141259464,6.4369226,-3.0413861,7.231368,10.147742858344804
1237936.3713007572,0.5336185,0.18186101,10.870981,10.885589099027277
1237937.5284755677,-6.0014133,2.6250203,13.275854,14.803918150346043
1237938.6856503785,-8.446965,2.215833,13.584539,16.149329194664247
1237939.8428251892,-3.1107805,-1.5721406,7.84156,8.581296208554312
1237941.0,5.6903353,-4.4292727,5.415151,9.017884055042645
1237942.8997763249,6.221561,-1.9478272,7.0207925,9.5808861492994
1237944.0569511356,-0.33022133,0.95955616,10.617333,10.665718643573435
1237945.2141259464,-6.1593456,2.730308,14.278482,15.788197117449078
1237946.3713007572,-6.4177794,0.64129937,13.213638,14.703720158656132
1237947.5284755677,0.48815325,-3.464931,8.257926,8.9686889929199
1237948.6856503785,6.3148847,-3.7688303,7.154795,10.260260332784798
1237949.8428251892,2.5986981,-0.021536173,8.91119,9.282402859054928
1237951.0,-4.087087,2.8451676,11.098308,12.16436185258079
1237951.8997763249,-8.456537,3.7425082,13.613255,16.457220219540762
1237953.0569511356,-5.865018,0.31586388,10.040643,11.632399493847418
1237954.2141259464,2.761416,-3.7640445,6.716893,8.179859466793134
1237955.3713007572,6.8963614,-3.0653152,7.205046,10.434013882340631
1237956.5284755677,1.8473251,0.17468229,10.299076,10.464898011032197
1237957.6856503785,-4.869568,2.8571322,13.28064,14.430914583785077
1237958.8428251892,-8.241176,3.0868514,14.553667,17.007494129810745
1237960.0,-3.3117847,-0.71787244,8.990156,9.607609673774308
1237960.8997763249,5.752551,-4.039229,6.2670264,9.417156355309121
1237962.0569511356,7.135652,-1.770752,6.86286,10.05743205247781
1237963.2141259464,1.1749178,1.2036327,10.059786,10.19943419406499
1237964.3713007572,-5.0633936,3.2639267,14.182766,15.409153891834876
1237965.5284755677,-6.274205,1.5697477,14.240196,15.640106724127437
1237966.6856503785,0.4450809,-2.9935281,9.131337,9.619803683059411
1237967.8428251892,7.0925794,-3.876511,7.410836,10.965970558838892
1237969.0,4.2976627,-0.1459674,8.363214,9.403965098543807
1237969.8997763249,-2.6321988,2.8499537,10.815945,11.49066459600532
1237971.0569511356,-7.7171288,4.213911,13.998512,16.53086389290815
1237972.2141259464,-6.0803795,0.97152066,11.261025,12.834545231812934
1237973.3713007572,2.443159,-3.5367181,7.5209103,8.662649280606637
1237974.5284755677,7.7147355,-3.2854629,6.893968,10.855330722150324
1237975.6856503785,3.5367181,-0.1196454,9.227054,9.882368919420323
1237976.8428251892,-3.62047,2.6656997,12.897775,13.65892960162344
1237978.0,-8.023421,3.4051082,15.24761,17.563019589724547
1237979.8997763249,-3.8884757,-0.40679437,10.179431,10.90442756006546
1237981.0569511356,5.1758604,-4.020086,6.927469,9.536270186694857
1237982.2141259464,7.518517,-1.8377534,6.252669,9.949939952686226
1237983.3713007572,2.2086542,1.1366314,8.98537,9.322390163018474
1237984.5284755677,-4.371843,3.2687125,13.510359,14.57145472947661
1237985.6856503785,-6.613998,1.978935,14.855173,16.38100479635355
1237986.8428251892,-0.5623334,-2.7542372,9.906639,10.29774430071656
1237988.0,6.6738205,-4.3168063,7.681235,11.053328359510765
1237988.8997763249,5.1399665,-0.78008807,7.5328746,9.152704122684385
1237990.0569511356,-1.6870002,2.2612982,9.95689,10.34886939217146
1237991.2141259464,-7.1906886,3.979406,13.582147,15.875024150678165
1237992.3713007572,-6.7551794,1.2108115,12.179902,13.980290624458442
1237993.5284755677,1.2012398,-3.5462897,7.9827414,8.817216564920251
1237994.6856503785,7.291191,-3.9243693,6.6235695,10.603481198294913
1237995.8428251892,4.5154176,-0.8542682,7.9755626,9.204801412656318
1237997.0,-2.5915194,1.8545038,11.828145,12.249904950072706
1237997.8997763249,-7.702771,3.275891,15.113607,17.276725947724326
1237999.0569511356,-4.8887115,-0.19143265,11.304098,12.317417675118525
1238000.2141259464,3.6420062,-3.984192,7.6644845,9.3745569337672
1238001.3713007572,7.2217965,-2.4048727,6.042093,9.71826348743779
1238002.5284755677,3.2902486,0.3254355,7.585519,8.274765411407335
1238003.6856503785,-3.4553592,2.5340896,12.299547,13.02459111477446
1238004.8428251892,-7.0088277,2.237369,15.089679,16.787730581990207
1238006.0,-2.0172215,-2.290013,10.885339,11.305040790070253
1238006.8997763249,5.697514,-4.7236004,8.363214,11.167695148457096
1238008.0569511356,5.6855497,-1.509925,6.848503,9.02814168241749
1238009.2141259464,-0.27279153,1.5793194,8.667113,8.814052004658533
1238010.3713007572,-6.3292418,3.6659353,12.857095,14.792000379450993
1238011.5284755677,-7.293584,1.7803236,13.239961,15.220462771128016
1238012.6856503785,-0.17707519,-3.017457,9.1983385,9.682243207560155
1238013.8428251892,7.0471144,-4.419701,7.415622,11.143923364011991
1238015.0,6.0803795,-1.4931747,6.9226832,9.334030653276352
1238016.8997763249,-0.66044265,1.3950654,10.342149,10.456693449767817
1238018.0569511356,-6.767144,3.5080032,14.895853,16.732804934187072
1238019.2141259464,-5.9296265,0.79205257,13.015027,14.324061767315682
1238020.3713007572,2.2971919,-3.4768956,9.004513,9.922053618374271
1238021.5284755677,7.3845143,-2.8164527,6.692964,10.356602935496648
1238022.6856503785,5.0825367,-0.1483603,6.5182815,8.26693315557258
1238023.8428251892,-1.7061435,2.3235137,11.062414,11.431825972436597
1238025.0,-6.7216787,3.0820656,15.350506,17.038724346757096
1238025.8997763249,-3.2088897,-1.3567789,12.316298,12.799571028556203
1238027.0569511356,4.9030685,-4.785816,9.509417,11.720628275883389
1238028.2141259464,6.8054304,-2.368979,7.0183992,10.059019423494806
1238029.3713007572,1.7516087,0.79205257,7.681235,7.918134340662849
1238030.5284755677,-4.9772487,3.390751,12.055471,13.476074279904134
1238031.6856503785,-7.968384,2.7757733,13.967404,16.3183465916025
1238032.8428251892,-2.0339718,-2.1057591,10.052607,10.470251676386631
1238034.0,6.1067014,-4.716422,7.8559175,11.011443058820776
1238034.8997763249,7.2002606,-2.4646955,6.164131,9.793619739442287
1238036.0569511356,1.3089207,0.34218585,8.992549,9.093750715311572
1238037.2141259464,-5.599405,2.866704,14.223446,15.552419242438038
1238038.3713007572,-6.7575727,1.251491,13.924333,15.527976945299582
1238039.5284755677,0.33500713,-3.1131735,9.86596,10.35090555168257
1238040.6856503785,6.831753,-3.5199678,7.157188,10.50182662365885
1238041.8428251892,6.3483853,-1.1414171,5.518046,8.488442764815257
1238043.0,-0.17468229,1.2897775,9.624276,9.711885935600865
1238043.8997763249,-6.2861695,2.9097762,14.682884,16.234833139711437
1238045.0569511356,-4.6589923,-0.80880296,12.952811,13.788969659887032
1238046.2141259464,2.995921,-4.922212,9.904246,11.458525316972555
1238047.3713007572,6.568533,-3.4051082,7.0949726,10.250806008336466
1238048.5284755677,3.046172,-0.38765112,6.590069,7.270381466551961
1238049.6856503785,-3.82626,2.2469406,10.930804,11.79709641114899
1238050.8428251892,-8.17896,2.9049904,13.831009,16.3288445967182
1238052.0,-3.8597608,-1.6008555,10.837481,11.615140386170882
1238053.8997763249,4.345521,-5.0131426,8.210068,10.555584685558625
1238055.0569511356,7.2146177,-3.3644288,5.89134,9.90343257174111
1238056.2141259464,2.8786685,-0.8279462,7.496981,8.073224347021931
1238057.3713007572,-4.4603806,1.9382555,12.976741,13.85812528667632
1238058.5284755677,-7.5879116,1.665464,14.374199,16.339148376715094
1238059.6856503785,-1.9741492,-2.5867336,10.87816,11.354418556968454
1238060.8428251892,5.262005,-4.0440145,7.757808,10.209129975717776
1238062.0,6.661856,-1.9358627,5.0322857,8.570401923154584
1238062.8997763249,1.2467052,0.47618872,8.001884,8.11240883475545
1238064.0569511356,-5.5635114,2.627413,13.498395,14.834507937458659
1238065.2141259464,-6.1354165,0.09810923,13.792723,15.096097800564637
1238066.3713007572,0.66283554,-4.338342,11.227525,12.05478659652157
1238067.5284755677,5.829124,-4.0799084,7.942062,10.663052469701656
1238068.6856503785,4.3646646,-1.3113136,5.821945,7.39357045080813
1238069.8428251892,-2.3594074,1.4764243,9.715207,10.106031814993175
1238071.0,-8.054528,3.1849606,13.479251,16.022159743534495
1238072.8997763249,-5.6616206,-0.60301286,11.715678,13.025923511496364
1238074.0569511356,2.3785505,-4.668564,9.557275,10.899288863442939
1238075.2141259464,7.0088277,-3.9435124,6.1617384,10.131237628605678
1238076.3713007572,4.8958898,-1.7348584,6.2981343,8.163698075175924
1238077.5284755677,-2.471874,1.1581675,11.598426,11.91532621070058
1238078.6856503785,-7.5209103,2.1464386,14.85278,16.78619564203325
1238079.8428251892,-3.4553592,-1.8927903,12.313905,12.928821240539438
1238081.0,4.1253734,-4.2306614,9.428058,11.126791056825033
1238081.8997763249,6.987292,-2.4694812,5.5395823,9.252435298281785
1238083.0569511356,3.2830698,-0.12921704,6.4536734,7.241902009069576
1238084.2141259464,-3.854975,2.4048727,12.222975,13.040144278513765
1238085.3713007572,-6.6235695,1.0815945,14.297626,15.794417647372647
1238086.5284755677,-0.84948236,-3.6539707,12.170331,12.735386873038864
1238087.6856503785,5.3816504,-4.524989,9.447201,11.776556933685761
1238088.8428251892,5.805195,-2.134474,5.266791,8.123752561617199
1238090.0,-0.002392908,0.6580497,7.884632,7.912045052267004
1238090.8997763249,-6.6163907,3.0366004,13.03417,14.929405730745836
1238092.0569511356,-6.4728165,0.25125536,12.857095,14.396714018748375
1238093.2141259464,1.1892753,-4.376629,10.760908,11.677602413479194
1238094.3713007572,6.774323,-4.3335567,7.602269,11.06642036653248
1238095.5284755677,6.4464946,-2.421623,4.891104,8.446564326445053
1238096.6856503785,-0.35415038,0.4139731,9.88271,9.897714542422293
1238097.8428251892,-6.7336435,2.3235137,14.443593,16.104597152640263
1238099.0,-4.398165,-1.3065279,13.096386,13.8768222868818
1238099.8997763249,3.2495692,-4.4364514,10.727407,12.05483562533308
1238101.0569511356,7.004042,-3.0437791,6.116273,9.7841704276801
1238102.2141259464,5.005964,-0.93562704,4.816924,7.0098381114724155
1238103.3713007572,-2.029186,1.7061435,10.634084,10.959574078596496
1238104.5284755677,-6.5254602,1.6152129,14.611096,16.08336624762759
1238105.6856503785,-2.0148287,-3.1347096,12.881024,13.40920274495288
1238106.8428251892,4.8001738,-5.0370717,10.68912,12.754256003215058
1238108.0,6.3100986,-2.7709875,5.6400843,8.905406614971866
1238109.8997763249,1.5290682,0.09332342,5.996628,6.189208850196908
1238111.0569511356,-5.3960075,2.8427749,11.567318,13.07673934072444
1238112.2141259464,-7.260083,1.1916683,13.622826,15.482579459844212
1238113.3713007572,-0.6101916,-3.6228628,11.615176,12.182355362051725
1238114.5284755677,6.2335258,-4.76428,8.801116,11.79045591413333
1238115.6856503785,7.4036574,-2.9480627,4.524989,9.164100721283408
1238116.8428251892,1.5218896,-0.24886245,7.9300976,8.078646447217128
1238118.0,-5.6400843,2.2828343,13.792723,15.075181295994154
1238118.8997763249,-5.597012,-0.36372203,14.070299,15.147017891078505
1238120.0569511356,1.5912839,-4.2569833,12.294762,13.107832158809561
1238121.2141259464,6.6235695,-3.7114005,7.7937016,10.880622740568349
1238122.3713007572,6.4919596,-1.9502201,3.8860826,7.813484233074188
1238123.5284755677,-0.05025107,0.75376606,8.509181,8.542648871047263
1238124.6856503785,-6.1282377,1.9813279,13.586932,15.0361457404364
1238125.8428251892,-3.6300416,-2.2732627,13.7664,14.417305375171251
1238127.0,3.4577522,-5.2476473,12.35937,13.865348147763983
1238127.8997763249,6.24549,-3.3955367,6.8054304,9.84122440300957
1238129.0569511356,2.988742,-0.72983694,5.0825367,5.941163186481201
1238130.2141259464,-4.1038375,2.165582,10.215324,11.219807130699985
1238131.3713007572,-8.025814,1.899969,13.6036825,15.908606165354753
1238132.5284755677,-2.656128,-2.8547394,12.368942,12.969012267465105
1238133.6856503785,5.0442505,-5.072965,10.153109,12.420348600738075
1238134.8428251892,8.078458,-3.7114005,4.7331724,10.071687956707455
1238136.0,4.2019467,-1.2634555,5.6999073,7.193164748475765
1238136.8997763249,-3.328535,1.6798215,12.139223,12.698885012544062
1238138.0569511356,-5.7645154,0.3326142,15.240432,16.297577658949898
1238139.2141259464,0.416366,-3.7114005,13.797508,14.294022573349332
1238140.3713007572,6.3053126,-4.0727296,9.772636,12.322682653015573
1238141.5284755677,7.3390493,-2.3115492,3.9219763,8.636365116738222
1238142.6856503785,1.6870002,0.27039862,6.5206747,6.740792507689139
1238143.8428251892,-5.125609,2.1249025,12.4670515,13.646041600370399
1238145.0,-4.6542063,-1.430959,14.032013,14.852833695117228
1238146.8997763249,2.234976,-5.2883267,13.266282,14.455301972287984
1238148.0569511356,6.4967456,-4.4101295,8.128709,11.301896106608423
1238149.2141259464,5.154324,-2.000471,3.8597608,6.742899491467572
1238150.3713007572,-1.5482116,1.1031306,7.946848,8.171061706665476
1238151.5284755677,-7.0279713,2.112938,13.0006695,14.92897501617904
1238152.6856503785,-3.6372204,-2.1703677,13.536681,14.183849995228393
1238153.8428251892,4.292877,-5.5324035,12.086578,13.96859510380429
1238155.0,8.2028885,-4.5034533,6.0253425,11.129834842036939
1238155.8997763249,5.5635114,-2.184725,4.3550925,7.395438669011543
1238157.0569511356,-1.952613,0.9404129,9.73435,9.972694915255124
1238158.2141259464,-6.4488873,0.7896597,14.072693,15.50007735858613
1238159.3713007572,-1.7348584,-3.3022132,14.35027,14.82715733912623
1238160.5284755677,5.259612,-4.7714586,11.605604,13.605895037331207
1238161.6856503785,7.939669,-3.3022132,4.692493,9.796042384701297
1238162.8428251892,3.8095098,-0.7059079,4.8217096,6.185430813315319
1238164.0,-3.433823,1.8616825,10.320613,11.035037599478501
1238164.8997763249,-5.1926107,-0.5695121,14.122944,15.058057548732403
1238166.0569511356,0.8734115,-4.812138,14.316769,15.129090996445797
1238167.2141259464,6.30292,-4.9963923,10.181824,12.975371921793814
1238168.3713007572,6.30292,-2.7566302,4.1469097,8.032600490868829
1238169.5284755677,0.09332342,0.36372203,6.4536734,6.4645884114686964
1238170.6856503785,-6.477602,2.3546216,11.770715,13.640135709032206
1238171.8428251892,-5.206968,-1.3160994,13.630005,14.64997166153332
1238173.0,2.4359803,-5.2931128,13.421822,14.632031606554026
1238173.8997763249,7.829595,-5.1160374,7.7434506,12.142381304211465
1238175.0569511356,7.3510137,-3.1921394,3.4027152,8.706642699624872
1238176.2141259464,0.2919348,0.071787246,7.4586945,7.464750697810983
1238177.3713007572,-5.989449,1.1797037,13.086814,14.44056442158653
1238178.5284755677,-3.309392,-2.6896286,15.1327505,15.722160001439121
1238179.6856503785,3.9411197,-5.1375737,13.606075,15.068256863960237
1238180.8428251892,7.7506294,-4.0416217,5.9296265,10.562548579370299
1238182.0,4.891104,-1.4261732,3.3022132,6.071365608614629
1238182.8997763249,-2.4838386,1.536247,8.250747,8.752390250318365
1238184.0569511356,-6.2789907,0.21057591,13.670684,15.045187518020997
1238185.2141259464,-1.3831009,-4.1851964,15.23086,15.855848553317914
1238186.3713007572,5.1926107,-5.5371895,12.282797,14.439209659253299
1238187.5284755677,7.0471144,-3.5869691,4.668564,9.182791433607656
1238188.6856503785,1.9645776,-0.442688,4.812138,5.216532367656676
1238189.8428251892,-5.3026843,2.3211207,10.028678,11.579311055374536
1238191.0,-6.326849,-0.40200856,14.041585,15.406386288268228
1238192.8997763249,0.6006199,-4.661385,14.953282,15.674498299914578
1238194.0569511356,7.049507,-5.3577213,9.925783,13.30119899236951
1238195.2141259464,8.346463,-3.6898644,3.1897464,9.66711052988789
1238196.3713007572,2.084223,-0.4737958,5.4510446,5.855113594544157
1238197.5284755677,-5.211754,1.5147108,11.287348,12.524414295177904
1238198.6856503785,-4.393379,-1.902362,15.223681,15.95873501899339
1238199.8428251892,2.574769,-4.886318,15.374434,16.33642432788892
1238201.0,7.547232,-4.407737,8.104779,11.919576291204065
1238201.8997763249,6.798252,-2.1296883,2.988742,7.72556672699323
1238203.0569511356,-0.004785816,1.067237,6.389065,6.477589774941664
1238204.2141259464,-5.3768644,0.80880296,12.486195,13.618733369227739
1238205.3713007572,-2.0028641,-3.646792,15.685513,16.227935006263177
1238206.5284755677,4.714029,-5.757337,14.273697,16.096814119328677
1238207.6856503785,7.755415,-4.2737336,5.8937325,10.637074009686602
1238208.8428251892,3.9817991,-1.0552725,3.4984317,5.404382340432804
1238210.0,-3.567826,2.160796,8.052135,9.068368087926128
1238210.8997763249,-6.824574,0.54558307,13.622826,15.246437596829715
1238212.0569511356,-1.3424214,-3.823867,15.819515,16.33037381336055
1238213.2141259464,5.747765,-5.333792,11.895146,14.247127358025722
1238214.3713007572,8.7053995,-4.1349454,3.7927594,10.356967595868483
1238215.5284755677,3.5702188,-0.97152066,4.1995535,5.597013870988934
1238216.6856503785,-4.1564813,1.5936768,10.090894,11.02915609914666
1238217.8428251892,-5.3194346,-1.3711363,15.290683,16.24750398748509
1238219.0,0.71787244,-4.680528,16.726427,17.383786796472872
1238219.8997763249,6.334028,-4.7594943,9.782208,12.588260008904347
1238221.0569511356,6.917897,-2.732701,2.6609137,7.899709828649258
1238222.2141259464,0.63172776,0.5264398,4.527382,4.601457008351013
1238223.3713007572,-5.721443,1.1773108,10.78723,12.26724507764256
1238224.5284755677,-3.874118,-3.1394954,15.577831,16.35646784330609
1238225.6856503785,2.6633067,-5.903304,15.400757,16.707049915162457
1238226.8428251892,6.982506,-5.025107,7.154795,11.189199341039107
1238228.0,4.6542063,-1.9382555,2.761416,5.748381423609253
1238229.8997763249,-2.4862316,1.3926725,6.3938503,7.000157563934179
1238231.0569511356,-6.893968,0.5647263,12.90256,14.639732413283232
1238232.2141259464,-2.6345918,-3.6635423,16.39142,17.00121365529286
1238233.3713007572,4.5202036,-5.805195,13.606075,15.467960643830944
1238234.5284755677,8.569004,-4.9030685,4.613527,10.897363977010095
1238235.6856503785,4.55849,-1.7492158,2.759023,5.6081899851555175
1238236.8428251892,-3.2639267,1.1868824,7.834381,8.569681031844981
1238238.0,-6.066022,-1.1462029,14.563239,15.817658934354773
1238238.8997763249,-1.1318455,-4.5680614,16.994432,17.634028983549513
1238240.0569511356,5.1638956,-5.372079,11.464422,13.673259389919595
1238241.2141259464,7.343835,-3.5103962,3.2160685,8.752022085489255
1238242.3713007572,2.0674727,-0.12443122,3.618077,4.168981610859537
