timestamp,accel_x,accel_y,accel_z,magnitude
791047.8168736746,2.3043704,1.8401463,9.468738,9.917321244088237
791050.1287488639,2.3450499,1.8281817,9.416093,9.874427312323176
791052.4406240534,2.3282995,1.8353605,9.43045,9.885490070257545
791054.7524992427,2.3641932,1.8616825,9.444808,9.912601544226243
791057.064374432,2.3833365,1.8305746,9.435237,9.902272137472613
791059.3762496213,2.4000869,1.7898953,9.428058,9.892038210797494
791061.6881248107,2.4264088,1.7348584,9.43763,9.897780223346444
791064.0,2.4479449,1.74443,9.451987,9.918443855086593
791066.8168736746,2.4120514,1.7635733,9.483095,9.94269950867167
791069.1287488639,2.4694812,1.7061435,9.504631,9.967310243285631
791071.4406240534,2.500589,1.7635733,9.461558,9.944054299869741
791073.7524992427,2.4623024,1.746823,9.535739,10.002231849867096
791076.064374432,2.4383733,1.7348584,9.588383,10.04452520395526
791078.3762496213,2.450338,1.7061435,9.581204,10.035664006255502
791080.6881248107,2.424016,1.691786,9.578811,10.024550544127802
791083.0,2.4264088,1.7348584,9.547704,10.002791860494948
791084.8168736746,2.3570144,1.7611804,9.538132,9.981644921182856
791087.1287488639,2.3067634,1.8353605,9.554882,9.999273752751437
791089.4406240534,2.2325833,1.9143264,9.535739,9.978947441153142
791091.7524992427,2.1775463,1.9430413,9.447201,9.887705705397506
791094.064374432,2.2852273,1.9119335,9.286877,9.753145027846994
791096.3762496213,2.290013,1.9382555,9.576418,10.03537620790438
791098.6881248107,2.3594074,1.9478272,9.423272,9.907516806254664
791101.0,2.4862316,1.8712541,9.363449,9.86697099677537
791103.8168736746,2.424016,1.8018597,9.432844,9.904599834171801
791106.1287488639,2.4311945,1.7540016,9.416093,9.881803261261672
791108.4406240534,2.368979,1.74443,9.435237,9.88325830753755
791110.7524992427,2.3546216,1.7540016,9.418487,9.865528970164657
791113.064374432,2.4288018,1.7946811,9.399343,9.872568422960128
791115.3762496213,2.4934103,1.7659662,9.411307,9.894868922423255
791117.6881248107,2.452731,1.7779307,9.480701,9.952920093307515
791120.0,2.41923,1.7396442,9.480701,9.937943810813916
791121.8168736746,2.2995846,1.718108,9.480701,9.905739542488595
791124.1287488639,2.3809435,1.5936768,9.363449,9.791980130119315
791126.4406240534,2.3976939,1.6726427,9.578811,10.015003235829807
791128.7524992427,2.3761578,1.7037506,9.595561,10.031135673602575
791131.064374432,2.3594074,1.7109293,9.507024,9.943721018077149
791133.3762496213,2.4335876,1.6989647,9.487881,9.941263276308542
791135.6881248107,2.4934103,1.6630712,9.459166,9.922636854988271
791138.0,2.6417706,1.5171037,9.344306,9.828357449808896
791140.8168736746,3.0437791,0.7944455,7.7147355,8.331439173217753
791143.1287488639,2.708772,2.2230117,8.523539,9.215744346000593
791145.4406240534,2.5986981,1.9621847,11.64389,12.090639972472827
791147.7524992427,0.5025107,1.61282,11.708499,11.82973601518713
791150.064374432,1.457281,2.4886243,8.425429,8.905322714733726
791152.3762496213,3.35725,2.2589052,8.025814,8.988185057489806
791154.6881248107,2.4383733,1.742037,10.12918,10.563173989475034
791157.0,2.163189,1.5769265,9.947319,10.301225127327537
791158.8168736746,2.3570144,1.5553902,9.253376,9.674694979865741
791161.1287488639,2.5125535,1.6511066,9.200731,9.679490122381798
791163.4406240534,2.6130557,1.7013576,9.152873,9.669424074292596
791165.7524992427,2.5364826,1.8521109,9.250982,9.769581707029507
791168.064374432,2.3522286,1.8545038,9.461558,9.92437622816852
791170.3762496213,2.3330853,1.7611804,9.440022,9.882259801224832
791172.6881248107,2.452731,1.6295704,9.370628,9.822426286885596
791175.0,2.5604117,1.6319634,9.428058,9.904912430900156
791177.8168736746,2.5077677,1.6199988,9.463951,9.923692028653736
791180.1287488639,2.4670882,1.6415349,9.478309,9.930735245387334
791182.4406240534,2.5077677,1.6893932,9.401736,9.876010734859776
791184.7524992427,2.4814458,1.7851094,9.353878,9.840692174191306
791187.064374432,2.4048727,1.9238981,9.408915,9.90012515474496
791189.3762496213,2.4000869,1.9717562,9.363449,9.86521245667781
791191.6881248107,2.41923,2.0028641,9.475916,9.982841400875044
791194.0,2.4096584,2.000471,9.509417,10.011860441817023
791195.8168736746,2.4981961,1.9286839,9.487881,9.999034513908601
791198.1287488639,2.6010911,1.7851094,9.509417,10.019046968667057
791200.4406240534,2.7231295,1.8138243,9.423272,9.975141505313333
791202.7524992427,2.6872358,1.8162172,9.521381,10.058656834266614
791205.064374432,2.6345918,1.8712541,9.518989,10.052552782329226
791207.3762496213,2.658521,1.8401463,9.373021,9.91500857182109
791209.6881248107,2.5915194,1.8281817,9.447201,9.965331297211963
791212.0,2.6441634,1.7875023,9.428058,9.953644669655876
791214.8168736746,2.6537352,1.7037506,9.370628,9.88704939469321
791217.1287488639,2.6633067,1.6678569,9.375414,9.888040093392547
791219.4406240534,2.7231295,1.6822144,9.2988405,9.834313102895285
791221.7524992427,2.8044882,1.6750357,9.301233,9.858186140487646
791224.064374432,2.8714898,1.665464,9.301233,9.87583714563424
791226.3762496213,2.9265265,1.6104271,9.303627,9.885115485149663
791228.6881248107,2.94567,1.5314612,9.325163,9.898535756998326
791231.0,2.9504557,1.4477094,9.356271,9.916695940178455
791232.8168736746,2.8284173,1.3376356,9.332341,9.842855376444765
791235.1287488639,2.6633067,1.3831009,9.286877,9.759726179098198
791237.4406240534,2.6848428,1.4046371,9.301233,9.782347446482223
791239.7524992427,2.7350938,1.4716384,9.317985,9.821980560731019
791242.064374432,2.7135577,1.5434257,9.365842,9.872413820926157
791244.3762496213,2.6250203,1.6176059,9.33952,9.835345151723294
791246.6881248107,2.5867336,1.6271775,9.341913,9.829050606922532
791249.0,2.579555,1.6247846,9.329948,9.815393964438012
791250.8168736746,2.5580187,1.6176059,9.375414,9.85182704825153
791253.1287488639,2.5316968,1.6343563,9.401736,9.872854147417348
791255.4406240534,2.4981961,1.7013576,9.459166,9.930328436294994
791257.7524992427,2.4024796,1.74443,9.490273,9.94385367288986
791260.064374432,2.342657,1.7563945,9.516596,9.956834983391824
791262.3762496213,2.5891266,1.5984626,9.375414,9.856827425993735
791264.6881248107,2.6202343,1.6319634,9.684099,10.164187413051623
791267.0,2.6417706,1.6056414,9.820495,10.295589262079336
791269.8168736746,2.5077677,1.4716384,9.507024,9.941736455674826
791272.1287488639,2.3450499,1.509925,9.4495945,9.85261228068705
791274.4406240534,2.3330853,1.4692456,9.672134,10.057442307274323
791276.7524992427,2.4766598,1.4764243,9.873138,10.285549399308263
791279.064374432,2.577162,1.4022441,9.60274,10.040949556582227
791281.3762496213,2.658521,1.4189945,9.480701,9.948113929276857
791283.6881248107,2.5819478,1.4548881,9.621883,10.06795839736813
791286.0,2.443159,1.4907818,9.743921,10.155562649540066
791287.8168736746,2.4335876,1.4859959,9.588383,10.003380477437593
791290.1287488639,2.6321988,1.4094229,9.380199,9.84393603765114
791292.4406240534,2.6920216,1.4548881,9.502238,9.982795534670243
791294.7524992427,2.6106627,1.40703,9.597955,10.045697254849776
791297.064374432,2.4790528,1.3950654,9.404129,9.824945419904681
791299.3762496213,2.502982,1.4477094,9.351485,9.788312066153049
791301.6881248107,2.5843408,1.4692456,9.56924,10.020371958229097
791304.0,2.5197322,1.536247,9.607526,10.05055526055162
791306.8168736746,2.4790528,1.5290682,9.4998455,9.93633820224077
791309.1287488639,2.4288018,1.5027462,9.504631,9.92448158703812
791311.4406240534,2.4862316,1.380708,9.530953,9.946193605511183
791313.7524992427,2.4024796,1.4237803,9.636241,10.032756310265153
791316.064374432,2.3546216,1.3950654,9.605133,9.98744363173844
791318.3762496213,2.3235137,1.4022441,9.535739,9.914399765300645
791320.6881248107,2.263691,1.4644598,9.581204,9.953311486079045
791323.0,2.3450499,1.5338541,9.423272,9.831074336996991
791324.8168736746,2.4288018,1.6199988,9.392164,9.83545722875051
791327.1287488639,2.4024796,1.6582853,9.607526,10.041233699366241
791329.4406240534,2.3474429,1.5912839,9.459166,9.875145266512064
791331.7524992427,2.3665862,1.4812101,9.368236,9.775405840888062
791334.064374432,2.3785505,1.4692456,9.440022,9.845313630080742
791336.3762496213,2.5173392,1.4620669,9.533346,9.967914637658584
791338.6881248107,2.500589,1.5577831,9.492666,9.939333042066888
791341.0,2.5939124,1.5601761,9.346699,9.824627891095211
791343.8168736746,2.5723763,1.4907818,9.490273,9.945090840135244
791346.1287488639,2.6417706,1.4189945,9.4998455,9.961905531469611
791348.4406240534,2.7039862,1.3160994,9.514202,9.978161087959784
791350.7524992427,2.7494514,1.2682413,9.56924,10.036845778111152
791353.064374432,2.7255223,1.2084186,9.54531,10.00008451547902
791355.3762496213,2.4862316,1.1988469,9.375414,9.773278320495848
791357.6881248107,2.2517266,1.2203832,9.315591,9.66125475884322
791360.0,2.392908,1.3184924,9.456773,9.843525104293215
791361.8168736746,2.526911,1.3711363,9.530953,9.955117229008794
791364.1287488639,2.6345918,1.5194967,9.423272,9.901918973609213
791366.4406240534,2.8188457,1.4166015,9.296448,9.817158260256107
791368.7524992427,2.7781663,1.3854938,9.425665,9.923757441237624
791371.064374432,2.7494514,1.2993491,9.444808,9.92230765706732
791373.3762496213,2.7973096,1.2921704,9.387379,9.880158390963643
791375.6881248107,2.938491,1.5745336,9.181588,9.768082903843206
791378.0,2.574769,2.2445478,9.631455,10.219215021070397
791380.8168736746,2.2589052,2.0148287,9.401736,9.87698472240525
791383.1287488639,3.101209,0.7394086,8.293819,8.8854744355153
791385.4406240534,3.0868514,1.301742,8.595325,9.225117649974496
791387.7524992427,3.1442811,1.4644598,9.392164,10.012187110942806
791390.064374432,3.2232473,1.040915,9.834852,10.401785474431122
791392.3762496213,3.460145,0.2943277,9.667349,10.272140424654118
791394.6881248107,3.1801748,0.6939433,9.485488,10.028437149442276
791397.0,2.474267,1.6199988,9.877925,10.31114909236189
791399.8168736746,2.160796,1.639142,9.863567,10.22965198886399
791402.1287488639,2.234976,1.2921704,9.389771,9.738204223349044
791404.4406240534,2.41923,1.119881,9.186374,9.565368498648498
791406.7524992427,2.4862316,1.2347406,9.375414,9.777746140574672
791409.064374432,2.4407663,1.3472073,9.43763,9.84079100770304
791411.3762496213,2.2828343,1.4883888,9.30602,9.696836695625121
791413.6881248107,2.421623,1.61282,9.250982,9.69773758517176
791416.0,2.6130557,1.5314612,9.538132,10.007466989594915
791417.8168736746,2.6656997,1.0696299,9.526167,9.94976988303966
791420.1287488639,2.7805593,0.7944455,9.13373,9.580588572013033
791422.4406240534,2.9265265,1.2012398,9.349092,9.869805248168289
791424.7524992427,2.88824,1.5793194,9.976034,10.505114679715419
791427.064374432,2.6010911,1.5577831,10.002356,10.451769641925756
791429.3762496213,2.2804415,1.4094229,9.6003475,9.967625517981848
791431.6881248107,2.3641932,1.093559,9.416093,9.769753740911602
791434.0,2.5628045,1.067237,9.463951,9.86272428134287
791436.8168736746,2.6345918,1.2132044,9.583597,10.01290518916541
791439.1287488639,2.5197322,1.3974583,9.674527,10.094474366389004
791441.4406240534,2.3546216,1.4668527,9.73435,10.121930134375747
791443.7524992427,2.41923,1.3352427,9.595561,9.985506385032473
791446.064374432,2.5843408,1.2084186,9.554882,9.971703110166017
791448.3762496213,2.7709875,1.2323477,9.52856,9.999525401360383
791450.6881248107,2.8738825,1.2586696,9.619491,10.118204232216872
791453.0,2.9935281,0.99305683,9.514202,10.023343356879641
791454.8168736746,2.8451676,0.94280577,9.205518,9.681189133590927
791457.1287488639,2.7685947,1.0433079,9.2485895,9.71030461554017
791459.4406240534,2.885847,1.2108115,9.490273,9.992970479815812
791461.7524992427,3.2304258,1.1533817,9.66017,10.251088948209382
791464.064374432,3.1418884,0.6652284,9.597955,10.121004481979352
791466.3762496213,2.6393776,-0.17228939,9.095444,9.472227790040964
791468.6881248107,2.9313123,-1.040915,8.523539,9.073412418813403
791471.0,3.2399976,-1.5314612,8.640791,9.354476306068245
791473.8168736746,3.383572,-2.268477,8.7556505,9.656912708358881
791476.1287488639,3.6659353,-2.6704855,8.291427,9.450837853112565
791478.4406240534,4.7786374,-2.1966896,8.334499,9.855186156558783
791480.7524992427,4.5704546,-1.433352,9.930569,11.025413999951484
791483.064374432,3.3500714,-0.5814767,10.4857235,11.023225066022789
791485.3762496213,2.5651975,0.46901,9.200731,9.563140672836893
791487.6881248107,3.9985495,3.1801748,7.312727,8.920643813034701
791490.0,4.5728474,11.366313,8.703007,15.028184700744955
791491.8168736746,-3.1394954,11.409386,16.60439,20.389612245840212
791494.1287488639,-8.262712,0.6676214,17.511301,19.37430748804413
791496.4406240534,-6.5661397,-11.311276,10.023892,16.478396952851817
791498.7524992427,-7.630984,-12.4670515,7.733879,16.53699411315579
791501.064374432,-1.6343563,-6.300527,14.051156,15.485565728426414
791503.3762496213,11.153344,-6.8365383,15.888909,20.581369427712627
791505.6881248107,23.029348,-6.8963614,5.573083,24.677315980256097
791508.0,32.072147,-0.60301286,-3.8956544,32.313501217032695
791510.8168736746,35.896015,11.938218,-7.98992,38.6637267151286
791513.1287488639,29.978354,23.87883,-8.829831,39.33021924941148
791515.4406240534,4.03205,34.53445,0.93562704,34.781619599480685
791517.7524992427,-25.137499,30.83262,19.20548,44.17459421511194
791520.064374432,-47.429832,10.662799,36.972824,61.07596876511743
791522.3762496213,-57.257504,-13.455322,43.285313,73.02797940475739
791524.6881248107,-28.475607,-42.74452,21.926216,55.8454396717181
791527.0,0.7226582,-43.120205,-3.6132913,43.27736346099087
791528.8168736746,15.022677,-17.367727,-13.476858,26.62601109713999
791531.1287488639,25.618475,13.409857,-9.8922825,30.561213639937147
791533.4406240534,20.684298,16.534994,18.032955,32.03800362639447
791535.7524992427,3.177782,3.6563635,40.43297,40.72213593986145
791538.064374432,2.2254045,-12.151187,10.078929,15.94329264877962
791540.3762496213,-0.19621846,0.6293348,-13.172959,13.189443232760693
791542.6881248107,-1.7133222,28.056847,-11.6223545,30.41712117650341
791545.0,2.7997024,32.572266,17.224152,36.952161750328294
791546.8168736746,7.1404376,1.5147108,43.909863,44.512428226349314
791549.1287488639,13.697006,-29.602667,10.981055,34.41670286052907
791551.4406240534,12.155973,-19.856352,-19.250946,30.209953926140784
791553.7524992427,-2.4646955,11.837716,-11.820966,16.90980429152071
791556.064374432,-10.519224,18.66229,31.557673,38.14212719266199
791558.3762496213,0.27039862,-8.157424,38.30328,39.16322178380979
791560.6881248107,14.522559,-20.098036,-5.025107,25.299950026180408
791563.0,5.8554463,5.0633936,-18.312925,19.881836639916585
791565.8168736746,-7.2529044,25.864944,13.902796,30.24711039051981
791568.1287488639,-5.790838,6.6163907,42.01468,42.92486186512066
791570.4406240534,12.378513,-18.363176,3.6228628,22.440119245801007
791572.7524992427,8.60729,-0.46422416,-19.506987,21.326591078580673
791575.064374432,-5.360114,20.60294,9.968855,23.507233540925675
791577.3762496213,-5.5012956,5.49651,43.18481,43.87942217252615
791579.6881248107,12.02197,-20.136322,6.692964,24.38841924918218
791582.0,7.1954746,-1.1868824,-19.858744,21.15545456397028
791583.8168736746,-6.0875583,20.61251,7.135652,22.64622405658619
791586.1287488639,-4.608741,5.953555,40.480827,41.17502477651999
791588.4406240534,11.959755,-17.551981,6.8150024,22.30587443693683
791590.7524992427,5.494117,2.9265265,-16.231096,17.383853322152348
791593.064374432,-5.003571,21.239452,14.524952,26.21305542310261
791595.3762496213,0.46183127,0.5647263,34.725883,34.73354508318365
791597.6881248107,10.983448,-15.372042,-0.069394335,18.8928722218777
791600.0,-0.63412064,7.7817373,-12.435944,14.683672822676938
791602.8168736746,-6.5804973,18.181316,21.68214,29.05130618727432
791605.1287488639,3.0796728,-5.8482676,23.785507,24.686777062292244
791607.4406240534,6.31967,-7.4706593,-5.4534373,11.202185397082472
791609.7524992427,-5.6879425,13.9961195,1.0241647,15.142422668592785
791612.064374432,0.2943277,8.293819,28.92308,30.090174793213617
791614.3762496213,9.526167,-12.675234,8.937511,18.201332850694367
791616.6881248107,-0.33022133,3.1418884,-5.9679127,6.752517370556171
791619.0,-5.7166576,16.010948,18.238745,24.933560699373984
791620.8168736746,8.535503,-5.1184306,21.662996,23.839851907384855
791623.1287488639,9.451987,-11.328027,-2.943277,15.044172740952792
791625.4406240534,-7.099758,13.335677,2.9815636,15.39923914379337
791627.7524992427,0.3230426,9.686492,27.865416,29.502777710590824
791630.064374432,13.247139,-15.4246855,5.9559484,21.186810420700276
791632.3762496213,1.902362,-0.08614469,-6.7551794,7.018464989785413
791634.6881248107,-9.301233,19.593132,18.190887,28.307457087073047
791637.0,7.7673798,-3.01985,21.09827,22.68454716261376
791639.8168736746,11.631927,-14.4890585,-4.0990515,19.02726373258655
791642.1287488639,-6.0540576,12.057864,3.3859649,13.910731683511322
791644.4406240534,1.4644598,8.545074,28.975723,30.2449244592216
791646.7524992427,15.290683,-17.628553,5.2715764,23.924054531398625
791649.064374432,2.88824,-2.3737648,-7.161974,8.0790198167844
791651.3762496213,-5.068179,15.508437,18.755613,24.85902402679516
791653.6881248107,12.553196,-8.274676,19.267696,24.43966247450664
791656.0,11.299312,-13.192102,-4.1540885,17.859520097628053
791657.8168736746,-4.008121,11.663034,5.2476473,13.402581774456527
791660.1287488639,7.922919,1.7683591,24.06069,25.39323812874628
791662.4406240534,15.029856,-15.190181,2.5460541,21.52023609706975
791664.7524992427,-1.5506045,6.7575727,-0.09093051,6.933789113381975
791667.064374432,2.4000869,8.937511,22.732626,24.544078814625507
791669.3762496213,13.874081,-14.175588,7.7147355,21.28272920880368
791671.6881248107,-0.70112205,0.46422416,-2.0890088,2.2518956383903204
791674.0,-4.929391,14.953282,18.956617,24.642501218161563
791676.8168736746,11.150951,-10.215324,14.776208,21.143151976198844
791679.1287488639,2.8451676,-8.875296,-1.3878866,9.422955320607507
791681.4406240534,-9.576418,15.233253,11.354349,21.276301837644013
791683.7524992427,7.312727,-2.677664,19.753456,21.233108218472417
791686.064374432,7.0925794,-14.008084,1.639142,15.786636322932265
791688.3762496213,-9.337128,11.1198435,5.83391,15.648239026835455
791690.6881248107,6.092344,2.7685947,21.679747,22.689054674252365
791693.0,13.69222,-15.69987,4.063158,21.224327067736777
791694.8168736746,-4.2234826,6.1282377,2.2445478,7.773744104785601
791697.1287488639,2.9600272,7.9013824,21.124592,22.747351318829047
791699.4406240534,14.544095,-13.809473,6.5206747,21.08913090788651
791701.7524992427,-2.029186,2.4264088,0.5288327,3.2069798115832806
791704.064374432,-3.2352118,13.907582,19.432806,24.11475443605469
791706.3762496213,11.533817,-10.366077,11.076772,19.057265409795868
791708.6881248107,-1.9382555,-2.88824,-0.10050214,3.479779498908635
791711.0,-8.937511,16.211952,14.804922,23.704265564482462
791713.8168736746,9.485488,-5.886554,14.706813,18.463920201572282
791716.1287488639,2.6609137,-8.269891,1.6343563,8.839834805361374
791718.4406240534,-9.581204,13.854938,11.804215,20.56935265971404
791720.7524992427,9.99757,-3.8884757,16.511066,19.68976763780483
791723.064374432,8.844189,-12.333048,1.9621847,15.302742265193487
791725.3762496213,-7.597483,12.033935,8.748472,16.705481191941104
791727.6881248107,8.241176,0.040679436,18.822615,20.547736423210083
791730.0,10.368471,-13.0604925,2.390515,16.84625231870941
791732.8168736746,-7.8798466,11.380671,4.850425,14.667592765358519
791735.1287488639,3.1658175,6.3412066,21.107841,22.265988710777496
791737.4406240534,10.468973,-13.754436,5.6352987,18.180772722605788
791739.7524992427,-7.839167,6.7767158,2.5915194,10.681403891269865
791742.064374432,0.21536173,9.021263,19.700811,21.66913751969927
791744.3762496213,12.86906,-13.357213,7.6908064,20.079251666664522
791746.6881248107,-3.9602628,2.7925239,2.5819478,5.4907490945279855
791749.0,-1.1988469,10.07175,18.241138,20.87142777787815
791750.8168736746,13.141851,-11.68457,7.753022,19.218396757367277
791753.1287488639,-2.1416528,1.5123179,1.715715,3.133282640878931
791755.4406240534,-4.462774,13.132279,17.82238,22.583408342704097
791757.7524992427,11.524245,-9.33952,9.911426,17.840157566678077
791760.064374432,-0.39482984,-1.8042527,1.5458187,2.4084795746033234
791762.3762496213,-7.1452236,14.151658,15.829087,22.40275964466275
791764.6881248107,9.7415285,-6.456066,12.313905,16.976761235927576
791767.0,1.5960697,-5.230897,3.4003224,6.439869124121145
791769.8168736746,-7.5711613,12.184688,13.953047,20.011912094354468
791772.1287488639,10.035856,-4.9030685,12.108115,16.473158022117474
791774.4406240534,5.235683,-6.613998,3.6946502,9.209114296220513
791776.7524992427,-7.391693,11.89036,12.90256,19.03927101780551
791779.064374432,8.231604,-2.4623024,13.491216,15.994847504134503
791781.3762496213,6.898754,-7.630984,3.201711,10.773842252803455
791783.6881248107,-7.85831,12.256475,9.95689,17.638420392819334
791786.0,4.9078546,1.9669704,15.3840065,16.26725746157783
791787.8168736746,6.511103,-8.143066,5.3385777,11.713428106916535
791790.1287488639,-8.31057,10.279933,8.229211,15.571207721044312
791792.4406240534,2.885847,3.8836899,14.840816,15.60964380415604
791794.7524992427,7.7673798,-8.767615,6.781502,13.53484507194955
791797.064374432,-6.97772,8.166995,8.839402,13.911269224841744
791799.3762496213,2.7135577,4.058372,14.845602,15.627721440568912
791801.6881248107,9.897068,-8.990156,5.5443683,14.47462882933462
791804.0,-4.9269977,8.231604,7.205046,11.997803907829853
791806.8168736746,0.16032484,7.5711613,16.45603,18.11488644308428
791809.1287488639,9.626669,-8.540289,7.133259,14.713690094607912
791811.4406240534,-3.5462897,6.3053126,5.62812,9.165635403748333
791813.7524992427,-1.74443,9.621883,14.87671,17.802813511203475
791816.064374432,7.968384,-6.611605,8.257926,13.243934689847915
791818.3762496213,-4.3550925,5.2500405,6.97772,9.757988129404366
791820.6881248107,-2.8762755,9.102622,14.838423,17.643964553175493
791823.0,9.169623,-7.4132295,7.2648687,13.84977526207696
791824.8168736746,-1.7898953,3.7927594,6.257455,7.532894007503057
791827.1287488639,-3.022243,9.30602,15.5754385,18.393755610498125
791829.4406240534,9.428058,-7.386907,7.9133472,14.355338260931395
791831.7524992427,0.571905,2.395301,4.6278844,5.2423140147638385
791834.064374432,-3.8693323,10.959519,14.072693,18.25167053810235
791836.3762496213,7.4084435,-4.8552103,9.6003475,13.062341837154417
791838.6881248107,-0.598227,1.5290682,5.666406,5.899498458395954
791841.0,-5.3960075,10.866196,13.012634,17.791002109730307
791842.8168736746,6.795859,-3.905226,9.583597,12.380622808137158
791845.1287488639,0.64369226,0.5647263,6.5733185,6.628858998495733
791847.4406240534,-4.955713,9.684099,13.5941105,17.410936363859935
791849.7524992427,7.410836,-4.6494203,9.02605,12.570090610152661
791852.064374432,2.1560102,-0.32064968,5.491724,5.9084878515542485
791854.3762496213,-5.728622,11.196417,13.917153,18.75803857769202
791856.6881248107,5.9750915,-3.2232473,10.880553,12.824877199261541
791859.0,2.340264,-1.9191123,5.367293,6.161790466865641
791860.8168736746,-6.176096,11.284955,12.323477,17.81466970007499
791863.1287488639,4.065551,-0.7394086,11.605604,12.319313057803628
791865.4406240534,1.457281,-1.7946811,6.700143,7.087768646344716
791867.7524992427,-6.8365383,10.440258,12.77813,17.86107077783499
791870.064374432,4.2354474,-1.1988469,10.629298,11.504704452553762
791872.3762496213,2.0411506,-1.7851094,5.467795,6.103252698674185
791874.6881248107,-7.365371,12.0243635,13.4529295,19.48885116367159
791877.0,4.137338,-0.36850783,11.725249,12.43924546984327
791879.8168736746,4.4340587,-3.646792,4.5537043,7.3277685074071615
791882.1287488639,-5.4701877,12.033935,11.138988,17.28628354278618
791884.4406240534,3.2830698,2.4288018,12.543624,13.191668906879496
791886.7524992427,3.0581365,-3.122745,5.484545,7.013128335107111
791889.064374432,-6.64032,11.832931,10.923625,17.41946293356331
791891.3762496213,3.3333209,2.0650797,12.072222,12.693073954208764
791893.6881248107,4.4101295,-3.9626558,4.7044573,7.568606323727452
791896.0,-5.7621226,11.792251,11.686963,17.573967812301262
791898.8168736746,3.7544727,1.2754201,13.697006,14.259408650100653
791901.1287488639,5.778873,-6.2048106,3.82626,9.302435880972325
791903.4406240534,-5.2021823,11.962148,10.122002,16.510923957923772
791905.7524992427,2.3354783,3.3692145,14.955675,15.507362120696289
791908.064374432,4.668564,-6.2909555,4.398165,8.984178665426308
791910.3762496213,-6.063629,12.043507,9.69367,16.60665214838891
791912.6881248107,1.691786,4.4460235,15.594582,16.303994988562536
791915.0,5.484545,-6.7408223,4.424487,9.751666747298703
791916.8168736746,-5.340971,11.332812,10.24404,16.18329245153115
791919.1287488639,2.5149465,3.2639267,16.286133,16.799294672530873
791921.4406240534,6.64032,-8.413465,2.9743848,11.123273256874347
791923.7524992427,-5.3768644,12.017184,8.63122,15.742342289324146
791926.064374432,0.7681235,5.809981,18.193281,19.113905055654488
791928.3762496213,6.7480006,-9.241411,3.7305436,12.035619839460795
791930.6881248107,-4.5967765,10.911661,6.3364205,13.429256298198107
791933.0,-0.27039862,8.037778,18.186102,19.885001798978696
791935.8168736746,6.0492716,-8.293819,4.560883,11.23311062150714
791938.1287488639,-4.6948857,10.514439,6.1569524,13.057696660462412
791940.4406240534,-0.442688,8.578575,18.947046,20.803328431337256
791942.7524992427,7.288798,-8.224425,3.7185793,11.601533298483329
791945.064374432,-2.9719918,11.060021,4.357486,12.253345829605244
791947.3762496213,-0.0598227,9.887496,20.117178,22.415775841784626
791949.6881248107,7.5352674,-8.973405,4.189982,12.444203519866258
791952.0,-3.2854629,10.842267,2.3115492,11.562537778125789
791953.8168736746,-2.0722585,12.90256,20.4809,24.29480550764756
791956.1287488639,7.0519004,-8.6551485,5.77648,12.570147811341457
791958.4406240534,-2.0459363,8.451752,0.47618872,8.708887581672927
791960.7524992427,-1.7133222,13.46968,19.581167,23.82834138888609
791963.064374432,7.836774,-7.9540267,6.3100986,12.825712916368854
791965.3762496213,-0.6939433,9.02605,0.62454903,9.074205055925772
791967.6881248107,-0.5144752,13.797508,19.313162,23.74098014361924
791970.0,8.19571,-8.126316,5.9296265,12.975636576502065
791972.8168736746,-0.96194905,9.686492,-0.39482984,9.74214369856113
791975.1287488639,-1.9167194,15.984626,19.873102,25.57581405782847
791977.4406240534,7.977956,-8.6551485,7.4658732,13.939104710614181
791979.7524992427,0.49533197,6.882004,-1.1222739,6.990481494370849
791982.064374432,-1.2825987,15.5347595,18.789114,24.413205792215777
791984.3762496213,6.944219,-7.6333766,8.066493,13.098050433420905
791986.6881248107,-0.6676214,7.449123,-0.2680057,7.483781053591791
791989.0,-0.885376,14.601525,19.648169,24.49569284669372
791990.8168736746,8.157424,-9.02605,7.867882,14.488502755088255
791993.1287488639,1.5960697,6.767144,-1.952613,7.22179852472797
791995.4406240534,0.6269419,15.893696,19.143265,24.889098488025166
791997.7524992427,8.820259,-9.17441,9.86596,16.10291695304863
792000.064374432,2.495803,4.4173083,-2.0531151,5.4732921396455625
792002.3762496213,-0.5240469,16.88436,18.071241,24.73713785067061
792004.6881248107,6.633141,-7.386907,10.679549,14.581416988617086
792007.0,0.9667349,4.039229,-2.057901,4.6351810975537955
792009.8168736746,-0.45465255,16.276562,18.013813,24.282311221958143
792012.1287488639,6.898754,-7.3821216,11.203596,15.086718974015476
792014.4406240534,1.9047549,3.936334,-2.395301,4.986008771475539
792016.7524992427,0.66283554,16.243061,17.793665,24.101678276315806
792019.064374432,8.025814,-8.559432,12.1152935,16.865879850051176
792021.3762496213,2.9528487,2.2493336,-3.0078855,4.777676450984401
792023.6881248107,-0.057429794,17.949203,16.532602,24.40295300587312
792026.0,6.300527,-6.401029,13.610861,16.307217723998505
792027.8168736746,2.6417706,0.7322299,-3.1610315,4.184164513193837
792030.1287488639,-0.14357449,17.779306,15.130358,23.34635022190789
792032.4406240534,5.541975,-4.714029,14.474701,16.20038658035255
792034.7524992427,2.4288018,0.90451926,-2.6441634,3.702544174117812
792037.064374432,0.9188767,16.231096,14.378984,21.703640077721406
792039.3762496213,6.6020336,-5.802802,14.340698,16.82007662984735
792041.6881248107,2.5580187,0.6748001,-2.711165,3.788037816830067
792044.0,0.0071787243,17.91331,13.596504,22.48892277794111
792046.8168736746,5.946377,-4.6039553,15.754907,17.457746086169774
792049.1287488639,4.120588,-2.2301903,-2.2924058,5.216140200553636
792051.4406240534,0.6652284,16.64746,12.189474,20.643733423788504
792053.7524992427,4.3838077,-2.8260245,16.63071,17.42942051616403
792056.064374432,2.6944146,-2.0124357,-1.4046371,3.6445538637841617
792058.3762496213,0.7776951,15.135143,12.108115,19.398036296291384
792060.6881248107,5.6137624,-3.7137933,17.027933,18.31002706746409
792063.0,4.4412374,-2.998314,-1.4237803,5.544513218346841
792065.8168736746,1.6846073,15.522795,10.693906,18.92497534751563
792068.1287488639,6.226347,-2.8260245,17.894167,19.15607016229838
792070.4406240534,6.1737027,-5.149538,-0.8734115,8.086729517534486
792072.7524992427,2.0339718,15.180609,8.492431,17.513118374059978
792075.064374432,3.9004402,0.4977249,18.705362,19.11417618891539
792077.3762496213,5.522832,-5.8674107,0.32064968,8.064179923586936
792079.6881248107,2.3641932,12.814023,7.4658732,15.017584944655164
792082.0,3.7903664,0.8734115,18.853724,19.250782679225207
792083.8168736746,5.814767,-5.57069,0.8877689,8.101372473858747
792086.1287488639,3.4433947,12.433551,6.8293595,14.597613116870487
792088.4406240534,5.5252247,0.50968945,19.69842,20.464985751701157
792090.7524992427,8.073672,-7.5950904,1.2945633,11.159994260099916
792093.064374432,4.3335567,12.103329,4.4651666,13.609114567822237
792095.3762496213,3.0389934,4.218697,20.370827,21.023878755524194
792097.6881248107,7.5448394,-8.415857,2.8786685,11.66353218151061
792100.0,4.225876,9.99757,3.2663195,11.334825845523884
792101.8168736746,0.8231604,6.0684147,20.703442,21.590177411560752
792104.1287488639,5.936805,-7.7960944,3.854975,10.530221923224664
792106.4406240534,4.0416217,8.726935,2.5675905,9.954226310257676
792108.7524992427,2.2038684,5.0274997,20.99059,21.696489524946628
792111.064374432,6.9370403,-8.217246,4.8456388,11.79516321753987
792113.3762496213,4.23784,9.102622,1.7540016,10.192817900526162
792115.6881248107,1.6080343,6.898754,21.406956,22.548533128530302
792118.0,7.5137315,-9.243804,5.7429795,13.224442785309652
792119.8168736746,4.5178103,7.2337613,-0.05025107,8.528800479680594
792122.1287488639,-0.79205257,9.514202,21.265774,23.310524035068873
792124.4406240534,5.5252247,-7.8439527,7.324692,12.070907788571304
792126.7524992427,4.0464077,5.6687994,-0.4091873,6.9768285172090145
792129.064374432,0.46901,8.341678,20.37322,22.019801438800123
792131.3762496213,6.1497736,-7.255297,7.678842,12.223897265210876
792133.6881248107,4.790602,6.420172,-0.69155043,8.040318279099479
792136.0,2.108152,8.770008,20.526365,22.42072713558579
792138.8168736746,8.040172,-8.372786,8.583362,14.436828405658355
792141.1287488639,5.6400843,4.816924,-2.8475606,7.944929773355763
792143.4406240534,-0.8566611,12.151187,18.724506,22.338136419434328
792145.7524992427,4.924605,-6.4464946,10.454616,13.232838801304508
792148.064374432,4.063158,3.204104,-3.3787863,6.179945973618838
792150.3762496213,-1.3783151,12.361763,17.571125,21.528060078620225
792152.6881248107,4.613527,-5.5635114,11.385457,13.485767370695225
792155.0,4.7092433,2.8044882,-2.2947989,5.942072745597729
792156.8168736746,0.80162424,10.404365,17.429943,20.314928635331942
792159.1287488639,6.800645,-7.4563017,11.976505,15.661477563514653
792161.4406240534,5.841089,2.1033661,-2.3546216,6.63978256690208
792163.7524992427,0.057429794,12.148794,17.53523,21.332622552995563
792166.064374432,6.7767158,-7.6668777,13.902796,17.262462956320658
792168.3762496213,6.633141,-0.6748001,-2.6896286,7.189437857494768
792170.6881248107,-1.6032485,12.7589855,16.255024,20.7265028883924
792173.0,3.7042217,-6.125845,14.977212,16.600123935071082
792175.8168736746,4.6398487,-0.7513731,-1.9765421,5.098968147318407
792178.1287488639,-1.2634555,11.540996,15.68312,19.512846061169455
792180.4406240534,5.2572193,-6.7408223,15.254789,17.48672718043576
792182.7524992427,6.7360363,-1.0241647,-2.0890088,7.126503780544933
792185.064374432,0.12682413,12.110508,14.85996,19.170260811465614
792187.3762496213,6.3292418,-6.8532887,16.156916,18.656709313259693
792189.6881248107,7.4012647,-2.6489491,-2.5939124,8.277924379500616
792192.0,-1.14381,13.072457,13.541467,18.856531013021403
792193.8168736746,3.644399,-4.766673,17.224152,18.23935930012987
792196.1287488639,5.7429795,-2.68245,-2.395301,6.776047403945847
792198.4406240534,-1.3711363,12.541231,12.584304,17.819292828643754
792200.7524992427,3.7592585,-4.139731,17.554375,18.423503436176528
792203.064374432,6.7288575,-2.4694812,-2.1488314,7.482869572435808
792205.3762496213,0.16989647,12.239725,12.031542,17.16384967843483
792207.6881248107,5.204575,-4.4986672,18.154993,19.414669153427003
792210.0,7.3893003,-3.153853,-2.2732627,8.349626996004096
792212.8168736746,-0.8566611,12.9599905,11.012163,17.028298680106374
792215.1287488639,2.8451676,-2.5963054,18.856115,19.245489167474645
792217.4406240534,5.4534373,-3.2423904,-1.7611804,6.584438494844311
792219.7524992427,-1.4381378,11.998041,10.356506,15.914724147703781
792222.064374432,2.8690968,-2.4599094,18.970976,19.3437535420754
792224.3762496213,5.7358007,-2.8571322,-1.2323477,6.525434463090762
792226.6881248107,-0.42354473,11.301705,10.031071,15.117219038314447
792229.0,4.532168,-3.484074,19.37777,20.203397946647492
792231.8168736746,6.795859,-3.3237493,-1.2012398,7.659894647724309
792234.1287488639,-0.8997334,12.330655,8.990156,15.28651293868018
792236.4406240534,3.0054924,-2.010043,20.354076,20.672727619791317
792238.7524992427,6.300527,-4.084694,-0.5431901,7.52837439531955
792241.064374432,-1.2490981,11.562531,7.8272023,14.018468712185005
792243.3762496213,1.6941789,-0.8997334,20.303825,20.39424114712057
792245.6881248107,5.448652,-3.2926416,0.5551547,6.390422056803967
792248.0,-0.39722276,10.516831,8.028207,13.236828466006198
792249.8168736746,4.0464077,-2.3785505,20.107607,20.64816643244912
792252.1287488639,7.6764493,-3.8286529,0.47618872,8.59146160913288
792254.4406240534,0.8734115,11.055236,6.8891826,13.055340959169586
792256.7524992427,4.376629,-1.7037506,20.701048,21.227129711973433
792259.064374432,8.679078,-4.97007,0.7322299,10.028167896552091
792261.3762496213,0.5551547,11.167702,5.1160374,12.296324791576337
792263.6881248107,1.2802058,0.92605543,21.167665,21.226552878458886
792266.0,6.2981343,-4.0727296,1.6965718,7.68973198025184
792268.8168736746,-0.2584341,10.074143,4.7403507,11.13669924741987
792271.1287488639,1.5793194,0.28475606,20.722584,20.784629499175086
792273.4406240534,6.6546774,-3.7568657,1.8042527,7.8520124166588365
792275.7524992427,0.40440148,10.361292,4.508239,11.306817914312196
792278.064374432,2.8427749,-0.15553902,21.414135,21.602563258026528
792280.3762496213,8.305784,-4.730779,1.926291,9.750739193424158
792282.6881248107,0.68915755,10.516831,3.3931437,11.072131528307127
792285.0,0.4737958,1.9932925,21.53378,21.63102814336512
792286.8168736746,6.0803795,-4.175625,2.6202343,7.827674417829458
792289.1287488639,-0.53840435,9.861175,3.280677,10.406512057507689
792291.4406240534,0.12682413,1.4955676,21.43567,21.48815383310116
792293.7524992427,6.357957,-4.2593765,2.9911351,8.216616978358749
792296.064374432,0.45465255,9.490273,3.3668218,10.080053550884823
792298.3762496213,2.471874,-0.023929082,21.974075,22.112682012330986
792300.6881248107,9.188767,-5.807588,3.2208543,11.337346240627104
792303.0,1.562569,9.5405245,2.5819478,10.006482101957015
792305.8168736746,0.63172776,1.6487137,22.388048,22.457560643970805
792308.1287488639,7.135652,-5.494117,3.8406174,9.790464395930142
792310.4406240534,-0.22254045,9.308413,2.1464386,9.555274747176302
792312.7524992427,-1.5194967,2.4383733,22.120043,22.305847594146982
792315.064374432,5.592226,-4.393379,4.457988,8.393356163112644
792317.3762496213,-0.33979294,9.066729,2.2828343,9.355873366114535
792319.6881248107,1.0504867,0.10050214,22.069792,22.09500717153732
792322.0,8.257926,-5.6831565,4.5489182,11.008372559795543
792323.8168736746,1.3400285,9.274912,1.5194967,9.493605174530229
792326.1287488639,1.1749178,1.1127023,22.368904,22.427358391179247
792328.4406240534,8.64797,-6.226347,4.790602,11.683520428694127
792330.7524992427,0.96434194,9.052371,0.4737958,9.115912382147034
792333.064374432,-1.5266753,3.2519622,22.038683,22.329566587740747
792335.3762496213,6.30292,-4.6518135,5.7621226,9.724619592694257
792337.6881248107,0.45225963,8.487645,0.6819788,8.527001319491054
792340.0,0.598227,1.2634555,21.557709,21.602986198039616
792342.8168736746,7.867882,-4.9102473,5.9200544,11.002778731395113
792345.1287488639,1.61282,8.729329,0.9739136,8.930334867344335
792347.4406240534,1.797074,0.80641,21.96211,22.05026185109093
792349.7524992427,8.72215,-5.912876,5.7453723,12.001970924789115
792352.064374432,0.9499845,8.971012,0.25125536,9.02466930753216
792354.3762496213,-1.5482116,3.4960387,22.1679,22.495222518576522
792356.6881248107,5.9176617,-4.5106316,6.3914576,9.808937133000864
792359.0,-0.16032484,8.279462,0.4977249,8.295958361747306
792360.8168736746,-0.5431901,2.0507221,21.725212,21.828544455852075
792363.1287488639,6.276598,-4.218697,6.247883,9.809644683325793
792365.4406240534,0.571905,8.497216,0.45225963,8.528440294251274
792367.7524992427,1.3472073,0.8829831,21.820929,21.880300936849565
792370.064374432,7.903775,-5.2452545,5.963127,11.204518625917146
792372.3762496213,1.0911661,8.820259,-0.19382556,8.88961082570995
792374.6881248107,-0.21057591,3.048565,21.796999,22.010162565939815
792377.0,6.4704237,-4.4340587,6.334028,10.082022124422828
792379.8168736746,0.1483603,8.021028,0.016750356,8.022417436772173
792382.1287488639,-1.4907818,2.7781663,21.457207,21.687608688062312
792384.4406240534,4.4388447,-3.3189635,6.688178,8.686229673726935
792386.7524992427,-0.80162424,8.549861,0.78487384,8.623152062105417
792389.064374432,1.0983448,0.51208234,21.536173,21.57024193440018
792391.3762496213,7.702771,-5.111252,6.4369226,11.264614979853318
792393.6881248107,1.3304569,8.49961,0.22493336,8.606049077904363
792396.0,0.96434194,1.7516087,21.864,21.955240477279194
792397.8168736746,7.0351496,-4.816924,6.5733185,10.765900000399336
792400.1287488639,0.019143265,8.377571,0.09093051,8.378086337719653
792402.4406240534,-2.0124357,3.0653152,21.356705,21.669215564459424
792404.7524992427,3.5295393,-2.761416,6.7025356,8.062694925678873
792407.064374432,-1.639142,8.798723,0.9739136,9.002934001044213
792409.3762496213,0.72744405,0.3613291,21.33756,21.353013846246323
792411.6881248107,6.65707,-4.6207056,6.424958,10.341546621687462
792414.0,0.7106937,8.470895,0.48097453,8.514251824720327
792415.8168736746,1.5817122,0.8159817,21.768286,21.84092294286484
792418.1287488639,7.087794,-4.848032,6.4441013,10.736232096230115
792420.4406240534,0.07418015,8.59054,0.08614469,8.591292166715624
792422.7524992427,-1.5673548,3.1658175,21.09827,21.391961071984245
792425.064374432,3.5917552,-2.5436614,6.7838945,8.086540874917238
792427.3762496213,-1.5434257,8.425429,0.98827106,8.622453039216566
792429.6881248107,0.4785816,0.46183127,20.574224,20.584970771705855
792432.0,4.900676,-3.3476784,6.539818,8.831352976748612
792434.8168736746,-0.208183,8.77958,1.1988469,8.863498125882838
792437.1287488639,3.048565,-0.15314612,20.954697,21.175847767093178
792439.4406240534,7.939669,-4.78103,6.401029,11.263647897075884
792441.7524992427,0.86862564,8.669506,0.78008807,8.747764410605587
792444.064374432,0.057429794,2.421623,20.983412,21.122763438932697
792446.3762496213,4.132552,-2.9935281,6.824574,8.521385262952826
792448.6881248107,-1.4022441,8.348856,1.4477094,8.588687183241055
792451.0,-0.06221561,1.1533817,20.459364,20.49194318293213
792452.8168736746,3.8142955,-2.7159507,6.8604674,8.306097237127284
792455.1287488639,-0.7346228,8.612076,2.0459363,8.882194494139021
792457.4406240534,3.275891,-0.9499845,20.885302,21.161988848530406
792459.7524992427,7.1021514,-4.582419,6.4536734,10.634332078412378
792462.064374432,0.6389065,8.920761,1.4859959,9.06622094092572
792464.3762496213,1.3735292,1.6415349,21.366276,21.47321516213505
792466.6881248107,5.1950035,-3.5917552,6.6522846,9.172876167328132
792469.0,-0.5551547,8.322535,1.2060257,8.427768598877023
792471.8168736746,-0.18664683,1.849718,20.717798,20.80104438934442
792474.1287488639,2.9552414,-2.0196145,6.8030376,7.687237153093299
792476.4406240534,-0.99066395,8.502003,1.5458187,8.697989740572721
792478.7524992427,3.1179593,-0.4115802,20.322968,20.564875316580757
792481.064374432,5.9942346,-3.206497,6.594855,9.471250388511073
792483.3762496213,0.9954498,8.791544,1.225169,8.932144495406298
792485.6881248107,3.0007067,0.8805902,20.466543,20.70408322458664
792488.0,5.362507,-3.0533507,6.5039244,8.96551529044231
792489.8168736746,-0.09093051,8.559432,0.96434194,8.614064075540407
792492.1287488639,0.34457877,2.0866158,20.404327,20.513635961195988
792494.4406240534,2.9600272,-1.9358627,7.1284733,7.9576665553919765
792496.7524992427,-0.571905,7.729093,1.1533817,7.835575491153722
792499.064374432,3.1610315,-0.5168682,19.973604,20.22879456687866
792501.3762496213,5.0155354,-2.6010911,7.1452236,9.10908834917904
792503.6881248107,0.703515,8.45893,1.0815945,8.556767892291765
792506.0,3.5606472,0.26082698,19.990355,20.306662261986553
792508.8168736746,5.5635114,-3.0533507,7.075829,9.504891668628394
792511.1287488639,0.39004403,8.183745,0.54079723,8.210863426847345
792513.4406240534,0.33740005,2.2038684,19.545273,19.67202509562215
792515.7524992427,1.8832186,-1.2993491,7.7458434,8.076689319045293
792518.064374432,-1.3831009,7.5352674,1.3400285,7.777460978358929
792520.3762496213,2.0626867,-0.55754757,19.009262,19.12897220186735
792522.6881248107,3.4960387,-2.3641932,7.6644845,8.749629633851034
792525.0,0.07418015,7.597483,1.0768087,7.673771406964031
792526.8168736746,3.8597608,-0.81358874,19.033192,19.437645890897784
792529.1287488639,5.199789,-2.8714898,7.5448394,9.602492431021094
792531.4406240534,0.31107804,8.274676,0.87819725,8.326960001216158
792533.7524992427,0.64369226,1.9502201,18.71972,18.83203693290845
792536.064374432,2.1416528,-1.5410328,8.056922,8.477939072705563
792538.3762496213,-1.0385221,7.365371,1.5027462,7.588508698120062
792540.6881248107,1.6702498,-0.021536173,18.181316,18.257887328302896
792543.0,2.579555,-1.6798215,8.420644,8.96566504195998
792545.8168736746,-0.25364825,7.6429486,2.318728,7.990963663723796
792548.1287488639,4.7236004,-1.9406484,18.516323,19.20762177864901
792550.4406240534,5.515653,-3.4218585,8.245961,10.494161063370061
792552.7524992427,0.63412064,8.044957,1.9478272,8.30165483015181
792555.064374432,1.9837208,0.5695121,18.906366,19.01867943813016
792557.3762496213,2.7350938,-2.2565124,8.549861,9.255955349150794
792559.6881248107,-0.78487384,7.492195,2.1727605,7.8402742970575705
792562.0,0.72505116,0.2584341,18.346426,18.36256611539183
792564.8168736746,0.9667349,-1.4524952,8.621648,8.796427280936566
792567.1287488639,-1.1533817,7.5400534,2.5412683,8.039946467068754
792569.4406240534,3.936334,-1.9932925,18.312925,18.836962664021428
792571.7524992427,4.5943837,-3.1418884,8.592933,10.238081941622134
792574.064374432,1.0911661,7.585519,2.4120514,8.034222670140041
792576.3762496213,3.7927594,-0.89494765,18.62879,19.03201965180335
792578.6881248107,3.7472942,-3.022243,8.547467,9.809962216466056
792581.0,-0.2680057,7.4012647,2.00765,7.673408938483506
792582.8168736746,0.34936458,0.8925547,18.260283,18.285421645188816
792585.1287488639,0.0598227,-1.1485959,9.152873,9.224854223837962
792587.4406240534,-1.718108,7.2241898,3.048565,8.02711417168792
792589.7524992427,3.6778998,-2.2277975,17.898952,18.408218581333458
792592.064374432,3.1299238,-3.0748868,9.0428,10.051048883903643
792594.3762496213,-0.071787246,7.1715455,2.9241338,7.745113088106652
792596.6881248107,3.8836899,-1.4931747,18.265068,18.73300101341763
792599.0,3.438609,-3.2519622,8.980584,10.151363405285313
792601.8168736746,-0.27039862,7.3510137,2.495803,7.767853657613189
792604.1287488639,1.2634555,0.8877689,17.71709,17.784255156974876
792606.4406240534,0.19143265,-1.2706342,9.353878,9.441726079937908
792608.7524992427,-2.215833,7.2337613,3.0150642,8.14418998792319
792611.064374432,2.4646955,-0.77530223,16.800608,16.998124797318887
792613.3762496213,1.277813,-1.7276796,9.382592,9.625524167633115
792615.6881248107,-1.2323477,7.755415,3.48886,8.592862548389814
792618.0,4.7523155,-1.3998512,16.762321,17.479115861528086
792619.8168736746,3.907619,-3.1179593,9.2485895,10.513209033645614
792622.1287488639,-0.2632199,7.760201,2.6848428,8.215740084549223
792624.4406240534,1.8449322,1.4955676,16.331598,16.503381183938355
792626.7524992427,0.9954498,-1.5434257,9.621883,9.79559674861259
792629.064374432,-1.9597918,7.4515157,2.8020954,8.198634566645527
792631.3762496213,1.8257889,0.7896597,15.348112,15.476485696491672
792633.6881248107,0.7968384,-1.6008555,10.088501,10.245757277751403
792636.0,-1.9621847,7.650127,3.43143,8.611000160140696
792638.8168736746,4.431666,-1.0696299,15.453401,16.111839563666557
792641.1287488639,3.9530842,-3.7879734,10.323006,11.68503615944055
792643.4406240534,-0.31107804,7.370157,3.460145,8.147919192815074
792645.7524992427,2.916955,0.9093051,15.7261915,16.02025472118291
792648.064374432,2.4311945,-3.3141778,10.669977,11.43428573927432
792650.3762496213,-1.7228938,6.843717,3.2519622,7.770462249595983
792652.6881248107,0.22493336,2.1057591,15.295468,15.441378103741185
792655.0,-0.5264398,-1.902362,11.34717,11.517568625841482
792656.8168736746,-3.7640445,7.3581924,3.8214743,9.105750502784408
792659.1287488639,3.1107805,-0.17946811,14.87671,15.199528431691137
792661.4406240534,3.62047,-4.2545905,11.4046,12.699379689716748
792663.7524992427,-0.67001426,6.8532887,3.5080032,7.728038015263724
792666.064374432,3.7927594,1.2155973,14.453165,14.991887112010971
792668.3762496213,3.9985495,-3.9004402,11.5721035,12.849724171064473
792670.6881248107,-1.1988469,6.5469966,3.1275308,7.354036121409781
792673.0,0.16989647,3.9411197,13.393106,13.961968973876232
792674.8168736746,0.24646953,-1.7109293,11.998041,12.121922872898422
792677.1287488639,-4.3526998,6.8078237,4.1038375,9.062777791913911
792679.4406240534,1.4596739,2.215833,12.782915,13.055400402724352
792681.7524992427,2.866704,-3.5367181,12.002827,12.837220210560096
792684.064374432,-2.6680925,6.3938503,4.8958898,8.483500231691538
792686.3762496213,2.811667,2.1799393,12.435944,12.93484865940493
792688.6881248107,4.788209,-4.505846,11.629534,13.359478083389074
792691.0,-1.9406484,6.0253425,5.161503,8.167740304009293
792692.8168736746,0.110073775,5.467795,11.718071,12.931437907634585
792695.1287488639,1.9621847,-2.4264088,11.543388,11.957735361688497
792697.4406240534,-4.477131,5.8721967,5.8674107,9.431537753575839
792699.7524992427,-0.34457877,4.9868207,10.933197,12.021726658990888
792702.064374432,2.0411506,-2.7781663,11.263418,11.77918031125511
792704.3762496213,-5.379257,6.2119894,7.492195,11.120171046156905
792706.6881248107,0.650871,4.3622713,11.916682,12.706705074194831
792709.0,5.6448703,-5.8386955,10.457008,13.240239505296207
792711.8168736746,-2.4694812,4.319199,7.705164,9.17187928756427
792714.1287488639,-0.48576033,6.539818,11.146166,12.932215551516364
792716.4406240534,3.3357139,-3.6037195,10.629298,11.708789750872524
792718.7524992427,-4.560883,4.5537043,8.693435,10.821907811968853
792721.064374432,-1.7492158,7.159581,11.703713,13.83098890162593
792723.3762496213,2.9217408,-3.7161863,10.452223,11.471511476715758
792725.6881248107,-5.3266134,3.462538,9.43763,11.376767543173393
792728.0,-1.5984626,5.8937325,10.93559,12.525106550974128
792730.8168736746,5.1471453,-5.1662884,9.30602,11.823098105475005
792733.1287488639,-3.4673238,3.1682103,9.909033,10.965802562246028
792735.4406240534,-1.9550059,8.104779,11.545781,14.241297328819337
792737.7524992427,5.8506603,-4.4149156,9.11698,11.697907078683754
792740.064374432,-1.0720228,0.9834852,9.588383,9.698121703558266
792742.3762496213,-2.495803,8.994942,10.327791,13.921252858053187
792744.6881248107,2.864311,-1.4859959,9.432844,9.969503861671042
792747.0,-4.2043395,1.4357449,10.066964,11.003708385195978
792748.8168736746,-5.1399665,8.951869,10.59819,14.794486996526215
792751.1287488639,4.1564813,-2.3354783,9.045193,10.224789097789234
792753.4406240534,-1.3160994,-0.031107806,9.803744,9.89173805475107
792755.7524992427,-3.984192,9.43763,10.416329,14.609673362057244
792758.064374432,5.8195524,-1.6032485,9.384986,11.158653955979368
792760.3762496213,1.6415349,-1.7875023,9.308413,9.619581793352157
792762.6881248107,-3.4816813,9.722385,10.196181,14.51237340160994
792765.0,3.1610315,1.4955676,10.026285,10.618626723422715
792767.8168736746,-0.08614469,-2.368979,9.069121,9.373816625190468
792770.1287488639,-6.1234517,8.992549,9.7415285,14.60342342589388
792772.4406240534,0.99066395,2.9241338,10.445044,10.891782117912019
792774.7524992427,-0.3230426,-2.6848428,9.035621,9.431605602322842
792777.064374432,-6.8915753,8.698221,10.18661,15.063860128549758
792779.3762496213,3.460145,2.1823323,11.194024,11.918110210986653
792781.6881248107,4.118195,-5.075358,8.23639,10.514604563096464
792784.0,-3.8454032,8.099994,9.925783,13.376030679304503
792785.8168736746,2.215833,5.647263,11.773108,13.244152190862275
792788.1287488639,3.6826856,-4.7977805,7.683628,9.778497338395692
792790.4406240534,-5.1902175,7.2146177,9.172017,12.771646804650862
792792.7524992427,-1.1222739,8.435001,12.292369,14.950286826973695
792795.064374432,1.9908996,-3.9506912,7.547232,8.748277146779337
792797.3762496213,-6.5757113,5.8458743,8.770008,12.422852561002735
792799.6881248107,-1.718108,8.427822,12.818809,15.437031545664116
792802.0,4.225876,-4.9963923,7.4036574,9.881098465223898
792804.8168736746,-3.6874714,4.2545905,8.511574,10.205188758959054
792807.1287488639,-1.3472073,9.698457,13.909975,17.01065666547436
792809.4406240534,5.932019,-5.228504,7.343835,10.791571526038364
792811.7524992427,-0.87819725,1.8880045,7.0471144,7.348306796032347
792814.064374432,-2.6656997,12.196652,13.84058,18.63936505453134
792816.3762496213,3.2639267,-1.5194967,8.48286,9.215259166398077
792818.6881248107,-2.2947989,0.37568656,6.5757113,6.974756016073504
792821.0,-5.235683,11.981291,13.854938,19.050538509108186
792822.8168736746,2.1679747,-0.21057591,9.638634,9.881686187066881
792825.1287488639,-1.8975761,-1.3424214,5.934412,6.373392821426682
792827.4406240534,-5.960734,11.098308,13.426607,18.41131624338871
792829.7524992427,4.668564,0.019143265,10.6364765,11.615958360021057
792832.064374432,2.8930259,-4.3096275,5.465402,7.537446986110819
792834.3762496213,-3.0844586,10.399578,12.309119,16.406691256598904
792836.6881248107,4.1540885,4.036836,11.840109,13.181072691120752
792839.0,3.7401154,-5.386436,5.2500405,8.400302449260586
792841.8168736746,-3.512789,8.980584,10.634084,14.355288853193898
792844.1287488639,0.703515,8.04735,13.20646,15.481129193612622
792846.4406240534,1.3854938,-5.0921082,5.5132604,7.631854245761894
792848.7524992427,-6.1497736,7.1476164,8.478073,12.680136329162039
792851.064374432,-0.37568656,9.05955,14.163623,16.8173958471576
792853.3762496213,3.2519622,-5.704693,6.389065,9.161819248855702
792855.6881248107,-3.1131735,4.8073525,7.729093,9.619842301358556
792858.0,1.0385221,9.73435,14.682884,17.64718619588246
792859.8168736746,5.7932305,-5.958341,6.4943523,10.547035550093046
792862.1287488639,-0.05025107,2.9002047,6.867646,7.455083772383395
792864.4406240534,0.5168682,12.100936,15.116,19.369906061007814
792866.7524992427,4.6948857,-3.5223608,7.104544,9.215395964871892
792869.064374432,-0.6556568,0.4785816,5.1662884,5.2296713108205335
792871.3762496213,-2.500589,12.818809,14.824065,19.75671310338911
792873.6881248107,2.3522286,-0.27279153,9.0571575,9.361596903589898
792876.0,-0.703515,-1.6870002,5.1638956,5.477839062780541
792878.8168736746,-2.7973096,10.514439,13.8453665,17.60887679559078
792881.1287488639,3.9530842,-0.11246668,9.7176,10.491485748281788
792883.4406240534,0.64129937,-2.7494514,4.551311,5.355854712522116
792885.7524992427,-3.6635423,11.359135,13.574967,18.0757079856697
792888.064374432,5.0083566,2.6369848,11.359135,12.691228176044255
792890.3762496213,5.1519313,-6.369921,4.450809,9.323518135373668
792892.6881248107,0.83033913,8.123923,10.602976,13.38322412714194
792895.0,3.3404996,7.961205,13.275854,15.836288140184276
792897.8168736746,2.7662017,-5.259612,5.4821525,8.085133658071655
792900.1287488639,-2.8451676,6.2407045,8.963834,11.286792782184229
792902.4406240534,1.0792016,8.734115,13.606075,16.204157424324553
792904.7524992427,1.5841051,-5.0657864,5.8745894,7.917220562600447
792907.064374432,-4.529775,5.886554,7.5113387,10.563644665155048
792909.3762496213,1.3089207,9.894675,14.771421,17.82730336068118
792911.6881248107,5.599405,-6.116273,6.070808,10.27700547520619
792914.0,1.4429235,2.7973096,5.5754757,6.4025696799328085
792915.8168736746,2.5364826,12.349798,15.537152,20.00885671126691
792918.1287488639,5.022714,-3.280677,7.475445,9.585028714205816
792920.4406240534,0.8925547,0.25604117,5.0633936,5.147831166787429
792922.7524992427,0.19143265,12.218188,14.730742,19.13937105375707
792925.064374432,1.6846073,-0.50968945,8.135887,8.324082073563643
792927.3762496213,-2.8762755,-0.40440148,3.9459054,4.899660267271151
792929.6881248107,-3.7257578,12.35937,14.460343,19.38393194526874
792932.0,3.5486827,0.92605543,10.122002,10.765948729801558
792934.8168736746,2.5867336,-3.5008245,4.716422,6.418068196837208
792937.1287488639,1.6415349,9.2485895,13.833402,16.7210662178293
792939.4406240534,6.2072034,2.1919038,10.792015,12.641258010089462
792941.7524992427,2.658521,-4.836067,4.240233,6.959515344491956
792944.064374432,-1.9047549,9.94014,12.144009,15.808587193065515
792946.3762496213,2.6656997,7.185903,12.569946,14.722319764863997
792948.6881248107,2.3498356,-5.8626246,4.7283864,7.889849966587291
792951.0,-1.3089207,6.5661397,10.141145,12.151966337586257
792952.8168736746,1.562569,9.552489,14.137301,17.133445290993958
792955.1287488639,0.8901618,-5.0394645,5.446259,7.473307672779202
792957.4406240534,-3.7353296,4.891104,7.994706,10.089148110018415
792959.7524992427,1.5123179,9.636241,14.826459,17.74734156203183
792962.064374432,3.4505734,-5.9750915,6.3794928,9.397132733308158
792964.3762496213,-0.17707519,2.2277975,6.5757113,6.945100173854044
792966.6881248107,2.6441634,11.062414,14.740314,18.61841723702344
792969.0,4.9030685,-3.9171906,6.898754,9.326160499634167
792970.8168736746,1.8401463,0.13639577,5.953555,6.232941468480398
792973.1287488639,2.3043704,11.916682,14.180373,18.66548716880031
792975.4406240534,2.4575167,0.08135887,7.599876,7.98774829422426
792977.7524992427,-1.0528796,-0.7226582,5.080144,5.238191805084976
792980.064374432,-1.0792016,11.517067,13.790329,17.99946338933949
792982.3762496213,2.2828343,1.9885067,8.978191,9.474882847280085
792984.6881248107,0.83033913,-2.9935281,4.9389625,5.8347257118655556
792987.0,0.71787244,8.798723,12.634555,15.413138788672008
792988.8168736746,4.5034533,3.4673238,9.937747,11.448241847346532
792991.1287488639,2.4575167,-4.1851964,5.0849295,7.029350272772165
792993.4406240534,0.64369226,8.1526375,11.761144,14.324955361910423
792995.7524992427,3.8597608,6.812609,11.050449,13.543331123534514
792998.064374432,2.1368668,-4.905462,4.979642,7.30934960188321
793000.3762496213,-0.08614469,6.4943523,10.624512,12.45248119622248
793002.6881248107,2.835596,9.650599,12.4574795,16.011354134705073
793005.0,1.6223917,-4.7786374,5.075358,7.157289225472983
793007.8168736746,-0.6819788,3.5008245,9.444808,10.095804347366965
793010.1287488639,2.7685947,9.9927845,13.661112,17.150709599105582
793012.4406240534,1.7324655,-4.1469097,5.5371895,7.131533097977924
793014.7524992427,-0.8925547,2.3809435,8.298605,8.67942341337887
793017.064374432,3.8334389,10.378042,14.57281,18.296606265914377
793019.3762496213,4.376629,-4.1038375,5.6185484,8.219759713835304
793021.6881248107,1.2634555,0.071787246,7.31512,7.423776250909541
793024.0,3.3404996,11.596032,14.780993,19.081526400911255
793025.8168736746,2.4910173,-0.24646953,6.152167,6.641917886725694
793028.1287488639,-0.34697166,-1.2610626,6.1617384,6.2990228070706715
793030.4406240534,1.3208853,11.062414,15.013105,18.695321960965988
793032.7524992427,1.8401463,2.268477,7.580733,8.124016194113702
793035.064374432,0.004785816,-2.8834543,5.666406,6.35786824030345
793037.3762496213,2.0866158,8.413465,14.395735,16.804093102374186
793039.6881248107,4.513025,2.6633067,8.628826,10.095406646944237
793042.0,1.6630712,-4.0727296,5.467795,7.017814073699203
793044.8168736746,2.0363648,7.757808,13.407464,15.623394556716509
793047.1287488639,5.0873227,5.984663,9.559668,12.372723861289732
793049.4406240534,2.629806,-4.661385,4.8719606,7.2374297788519755
793051.7524992427,2.445552,6.408208,12.124866,13.930478451005337
793054.064374432,4.2617693,9.775029,10.669977,15.085167506454559
793056.3762496213,0.832732,-3.464931,4.563276,5.789877137794981
793058.6881248107,-0.16511066,4.300056,10.397185,11.252519675939546
793061.0,3.206497,10.471366,12.285191,16.457735166888728
793063.8168736746,0.39243692,-2.8164527,5.230897,5.953880748900281
793066.1287488639,-0.8040171,2.5986981,9.559668,9.939161311813992
793068.4406240534,4.6015625,9.796566,13.44575,17.260801716498058
793070.7524992427,3.2591407,-3.6515777,5.49651,7.359866845373888
793073.064374432,1.8281817,0.2632199,8.918368,9.107624324015285
793075.3762496213,5.7932305,10.342149,13.125101,17.685865594438184
793077.6881248107,3.050958,-0.6556568,5.5802617,6.3935554426028975
793080.0,1.1103094,-0.6460852,7.9755626,8.078354525267269
793081.8168736746,4.6470275,10.717835,13.658719,17.97296459669195
793084.1287488639,1.691786,3.0366004,6.374707,7.260851960681003
793086.4406240534,0.0071787243,-1.6367491,7.2648687,7.446966924773674
793088.7524992427,4.3550925,8.116744,12.825988,15.790957286410356
793091.064374432,3.0270288,3.6635423,6.9131117,8.389014180259538
793093.3762496213,0.055036888,-2.1201165,6.9107184,7.228827832830959
793095.6881248107,3.383572,7.260083,12.940847,15.219161794378888
793098.0,5.2691836,4.919819,7.5879116,10.466389886330651
793100.8168736746,2.1033661,-3.8884757,6.4608517,7.828601210274578
793103.1287488639,4.357486,5.647263,12.249296,14.174784517832395
793105.4406240534,4.5106316,8.621648,8.257926,12.762129661161516
793107.7524992427,0.16032484,-2.5604117,6.0516644,6.5729790915569835
793110.064374432,1.9813279,4.1564813,11.811395,12.677186158236893
793112.3762496213,4.0464077,9.70085,9.844424,14.401131548905985
793114.6881248107,-0.5144752,-2.0531151,6.109094,6.46536896442106
793117.0,0.36372203,2.5604117,10.99302,11.29311695277279
793118.8168736746,5.161503,9.030835,10.215324,14.579092510894155
793121.1287488639,0.9164838,-2.3019776,6.070808,6.556962192923504
793123.4406240534,0.99066395,1.6534995,10.71305,10.885077673624101
793125.7524992427,6.968148,9.652991,10.806373,16.078340063921836
793128.064374432,3.0796728,-1.3711363,5.9176617,6.810515347892876
793130.3762496213,2.6465564,-0.41875893,10.12918,10.477590719828472
793132.6881248107,7.154795,9.763065,10.708263,16.160922812866197
793135.0,0.1172525,2.6202343,6.1545596,6.690140492217252
793137.8168736746,-1.5266753,-0.09093051,9.28209,9.40724192297503
793140.1287488639,4.63267,8.91119,11.201202,15.044529397418984
793142.4406240534,1.1150951,3.0796728,7.291191,7.993077494656539
793144.7524992427,-0.24407662,-1.7875023,9.583597,9.751926441854701
793147.064374432,6.556568,6.489567,11.000198,14.356441753628125
793149.3762496213,4.242626,3.2591407,7.2289753,8.993328492070251
793151.6881248107,1.2395264,-2.5891266,9.349092,9.779852937114573
793154.0,7.080615,6.1928463,10.756122,14.289178232233395
793155.8168736746,4.680528,7.0519004,7.10933,11.053470706488717
793158.1287488639,0.75376606,-2.1512244,9.164838,9.444055551435902
793160.4406240534,6.0373073,4.4412374,10.31822,12.753012704698136
793162.7524992427,3.1107805,9.387379,7.5017667,12.412749229322653
793165.064374432,-2.4646955,-0.72983694,8.935119,9.297512431337202
793167.3762496213,1.8640754,3.390751,9.820495,10.555287371071957
793169.6881248107,3.9147975,8.435001,7.9444547,12.23066808544649
793172.0,-0.99066395,-1.7324655,9.538132,9.744681309306316
793174.8168736746,3.4218585,1.8688612,10.131573,10.855898361407807
793177.1287488639,7.5376606,8.155031,7.573554,13.441710386802319
793179.4406240534,1.6941789,-1.8329676,9.657777,9.975102453087084
793181.7524992427,5.379257,0.4139731,10.275147,11.605448094372816
793184.064374432,8.088029,9.784601,6.843717,14.421896276500224
793186.3762496213,-1.2012398,1.5290682,9.839638,10.029930338162837
793188.6881248107,1.639142,0.035893623,9.703242,9.840781481107081
793191.0,6.556568,9.358664,6.817395,13.306015571520462
793192.8168736746,-1.7851094,2.5293038,11.225132,11.644208075265867
793195.1287488639,1.3735292,-1.3184924,10.279933,10.454760980366762
793197.4406240534,8.619255,6.7910733,5.9559484,12.485333582426241
793199.7524992427,0.89734054,1.6152129,11.371099,11.520244147797166
793202.064374432,2.864311,-2.2254045,10.614941,11.217561015070176
793204.3762496213,10.239254,6.7288575,4.869568,13.184556808571392
793206.6881248107,1.0457008,4.711636,10.387614,11.454061662685977
793209.0,1.742037,-2.0339718,10.722621,11.05198331984831
793211.8168736746,9.069121,6.463245,4.792995,12.124161526171244
793214.1287488639,-1.4883888,8.164602,10.258397,13.19510272972433
793216.4406240534,-1.4118158,-1.430959,11.306491,11.483797553331025
793218.7524992427,7.4012647,4.1612673,4.7259936,9.717503805440796
793221.064374432,-0.09571633,7.0136137,10.619726,12.727078182510404
793223.3762496213,-0.72983694,-2.3737648,12.7542,12.993730754664252
793225.6881248107,8.652756,2.8547394,5.0897155,10.436710559768754
793228.0,3.5247536,6.381886,9.818102,12.22896086100994
793230.8168736746,2.2230117,-3.854975,13.778365,14.47915589190844
793233.1287488639,11.337599,1.2179902,5.1710744,12.520569542254556
793235.4406240534,3.2974274,9.504631,7.9540267,12.824881233319264
793237.7524992427,-1.1820966,-1.170132,14.268911,14.365527571066666
793240.064374432,8.025814,0.42115182,5.4630094,9.717794550337729
793242.3762496213,2.5699832,9.820495,7.0638647,12.367098293181522
793244.6881248107,-2.94567,0.026321989,14.816887,15.106879392077436
793247.0,6.4919596,-0.3517575,5.6329055,8.602261165459268
793248.8168736746,4.843246,8.088029,6.042093,11.19732703559229
793251.1287488639,-1.1150951,-0.8638398,15.735764,15.79885834311467
793253.4406240534,8.037778,-1.3735292,6.558961,10.464818538324382
793255.7524992427,7.343835,8.396714,4.2091255,11.922812419046576
793258.064374432,-0.6389065,0.3828653,16.015734,16.033044717471547
793260.3762496213,7.968384,-2.2301903,7.362978,11.076205910606488
793262.6881248107,7.2026534,9.155267,3.3644288,12.125036535701243
793265.0,-3.9746203,3.304606,16.02052,16.833748495650283
793266.8168736746,3.5534685,-1.6726427,7.444337,8.416829887310575
793269.1287488639,6.3053126,8.013849,2.4407663,10.48504091120943
793271.4406240534,-3.4505734,2.995921,16.67139,17.286331130668778
793273.7524992427,4.139731,-2.029186,8.559432,9.722080268007511
793276.064374432,8.612076,6.932255,1.5482116,11.1633763518559
793278.3762496213,-0.9284483,1.9167194,17.092543,17.2247164188836
793280.6881248107,6.274205,-3.7281508,9.294055,11.817115346504435
793283.0,10.323006,7.083008,0.3804724,12.525103370881286
793284.8168736746,-2.4000869,5.180646,16.558924,17.515635133863793
793287.1287488639,4.0033355,-3.5917552,10.248825,11.574360216569739
793289.4406240534,9.095444,6.010985,0.1172525,10.902879912028622
793291.7524992427,-4.5919905,6.6762137,16.546959,18.42444187127086
793294.064374432,1.0863802,-2.1009734,10.830302,11.085565054505052
793296.3762496213,8.719757,5.278755,-0.34697166,10.199010041269553
793298.6881248107,-1.1725249,4.371843,16.963326,17.55682929346996
793301.0,4.714029,-4.170839,12.045899,13.591234310943323
793303.8168736746,11.864038,4.419701,-1.1557746,12.713180936368763
793306.1287488639,-0.6843717,5.9822702,15.972662,17.069910741881838
793308.4406240534,4.3024487,-4.2593765,12.742235,14.1073706189392
793310.7524992427,11.229918,3.8501892,-1.5147108,11.967847090022387
793313.064374432,-3.1610315,8.523539,15.3337555,17.826017361213736
793315.3762496213,0.89494765,-2.6010911,13.357213,13.637512432042316
793317.6881248107,9.518989,2.6609137,-1.483603,9.994633117957742
793320.0,-1.9430413,6.795859,15.015498,16.59591182277704
793321.8168736746,1.9406484,-3.172996,14.127729,14.609132298869758
793324.1287488639,11.253847,2.5484471,-1.9191123,11.697292290992763
793326.4406240534,0.51926106,6.7719297,13.876474,15.449439943986656
793328.7524992427,4.374236,-4.2521977,15.00832,16.20076526235663
793331.064374432,13.407464,1.3735292,-1.7587874,13.591909596997303
793333.3762496213,-0.31107804,9.444808,12.591482,15.743144116095685
793335.6881248107,1.2825987,-2.1990826,15.692691,15.897848109991033
793338.0,11.012163,0.48097453,-1.3926725,11.110292846245502
793340.8168736746,-1.3854938,8.877689,12.086578,15.060488796869889
793343.1287488639,-1.1342385,-0.9188767,16.243061,16.308521147375878
793345.4406240534,8.698221,1.6702498,-1.328064,8.956145205797919
793347.7524992427,-0.088537596,7.056686,12.230153,14.120244283011198
793350.064374432,1.8545038,-3.4075012,16.874788,17.31498538310558
793352.3762496213,11.213167,0.54079723,-1.3472073,11.30674768989907
793354.6881248107,0.4785816,8.844189,11.081557,14.186247740675777
793357.0,1.6606783,-2.6465564,17.628553,17.903295620311944
793358.8168736746,11.840109,-1.196454,-0.5814767,11.914604418890285
793361.1287488639,0.53840435,8.688649,10.26079,13.456088291676743
793363.4406240534,-1.1031306,-0.45943835,17.939632,17.9793875594674
793365.7524992427,8.23639,0.42115182,-0.5838696,8.267792498448028
793368.064374432,0.27279153,7.65252,9.990392,12.587430630708704
793370.3762496213,0.234505,-1.5984626,18.310534,18.38166833135066
793372.6881248107,9.770244,0.208183,-0.28475606,9.776609534738089
793375.0,2.1560102,7.910954,9.109801,12.25642882050971
793377.8168736746,2.165582,-2.21344,18.55461,18.81123638372619
793380.1287488639,11.557746,-1.4644598,0.16750357,11.651360115981944
793382.4406240534,1.7516087,8.810688,8.121531,12.110145410160056
793384.7524992427,-1.2084186,0.43072346,18.523502,18.567873452709232
793387.064374432,7.7673798,-0.22732627,0.2632199,7.775162436003261
793389.3762496213,0.92366254,8.224425,7.9635983,11.485347924733807
793391.6881248107,-0.7202653,-0.1459674,19.167194,19.18127770556182
793394.0,8.76283,-0.64369226,0.7944455,8.822282753740902
793396.8168736746,3.1442811,6.9394336,7.492195,10.685280915476728
793399.1287488639,2.084223,-1.9478272,19.456736,19.664755073188296
793401.4406240534,10.842267,-1.902362,1.1557746,11.06840321836615
793403.7524992427,2.627413,8.387143,6.925076,11.189465777274355
793406.064374432,-0.67001426,0.37568656,19.372984,19.388206945569358
793408.3762496213,8.147852,-1.5075321,1.4668527,8.41497487161618
793410.6881248107,1.40703,7.992313,6.982506,10.705708316169698
793413.0,-1.9597918,0.92366254,19.447165,19.56747717321708
793414.8168736746,6.637927,-0.48097453,1.6199988,6.84965747084036
793417.1287488639,2.2014754,6.764751,6.848503,9.874732572065694
793419.4406240534,1.0480938,-1.4237803,19.540487,19.6203028303193
793421.7524992427,9.480701,-1.5171037,1.6439278,9.741036582395505
793424.064374432,3.35725,7.7267003,6.1832747,10.450163209451812
793426.3762496213,0.6819788,-0.3326142,19.303589,19.318495686015826
793428.6881248107,8.753258,-1.8784329,1.7300725,9.118178909717809
793431.0,1.7635733,8.205282,6.09713,10.373612568478586
793433.8168736746,-2.555626,1.5218896,19.279661,19.507760006761032
793436.1287488639,5.199789,-0.13878867,1.7540016,5.4894070310229255
793438.4406240534,1.4118158,7.0279713,6.6355343,9.768107283052833
793440.7524992427,-0.16032484,-1.0433079,19.7391,19.767302907542128
793443.064374432,7.274441,-1.251491,1.87604,7.6159863226743
793445.3762496213,2.1536174,7.3462276,6.637927,10.132482554335514
793447.6881248107,0.53840435,-1.14381,19.67449,19.71506371585694
793450.0,8.289034,-2.0387578,1.7037506,8.70444622748726
793451.8168736746,1.3160994,8.013849,6.544604,10.430040025920196
793454.1287488639,-2.5316968,1.0193789,19.255732,19.448183382638064
793456.4406240534,4.5728474,-0.27279153,1.6606783,4.872699557598168
793458.7524992427,0.57908374,6.9418263,7.205046,10.021825094234087
793461.064374432,-0.7705164,-1.3184924,19.566809,19.626312240816095
793463.3762496213,6.176096,-1.0385221,1.7563945,6.504430151291861
793465.6881248107,1.7013576,6.482388,7.1906886,9.829647725518535
793468.0,1.4166015,-2.4646955,19.530916,19.736721194681213
793470.8168736746,8.844189,-1.9837208,1.7994668,9.240828320252243
793473.1287488639,1.9454343,7.786523,7.528089,11.003943794706808
793475.4406240534,-0.7609448,-0.31825677,19.528522,19.54593297504066
793477.7524992427,5.9009113,-1.0768087,1.6534995,6.222084196100502
793480.064374432,0.6819788,7.087794,7.602269,10.416161136351839
793482.3762496213,-1.3687434,-0.70112205,19.466307,19.526959283060144
793484.6881248107,5.077751,-0.37329367,1.5123179,5.311309519574573
793487.0,1.5266753,6.5422106,7.5950904,10.139854791393939
793488.8168736746,1.6678569,-2.395301,19.662525,19.8779803525183
793491.1287488639,8.049743,-1.4907818,1.7994668,8.382056639367363
793493.4406240534,2.0914016,7.3773355,7.099758,10.450148486533902
793495.7524992427,-0.033500712,-0.3517575,18.970976,18.974266416098587
793498.064374432,5.616155,-0.30868515,1.6558924,5.863315030444235
793500.3762496213,0.703515,7.1835103,7.0734363,10.106000923985155
793502.6881248107,-1.7133222,0.25604117,18.633575,18.713929232589635
793505.0,2.94567,1.5386399,2.0435436,3.9013401461386272
793507.8168736746,1.3902797,5.726229,7.860703,9.824114609413007
793510.1287488639,2.5675905,-3.4505734,18.808258,19.293769635792838
793512.4406240534,7.2720475,-0.5551547,2.2445478,7.630784128100675
793514.7524992427,2.9815636,6.334028,8.071279,10.684342605021142
793517.064374432,2.0650797,-2.4024796,19.045155,19.30684830234581
793519.3762496213,5.9990206,-0.5647263,2.0890088,6.377391451025528
793521.6881248107,0.60779864,7.3510137,7.4945884,10.515496987293949
793524.0,-1.8377534,0.48336744,18.521109,18.618336666607593
793525.8168736746,1.9645776,1.9478272,2.6345918,3.8202970957909597
793528.1287488639,0.677193,5.616155,8.166995,9.93476696623021
793530.4406240534,0.84708947,-2.5149465,18.236353,18.42843149073345
793532.7524992427,3.4051082,1.4740313,2.5364826,4.494582751178322
793535.064374432,1.6893932,6.058843,8.320142,10.430167342042948
793537.3762496213,3.1610315,-3.4027152,18.490002,19.064384722206675
793539.6881248107,6.688178,-0.45465255,2.4623024,7.141524137741975
793542.0,2.0483294,6.6594634,7.4012647,10.164783581872758
793543.8168736746,0.4139731,-0.55754757,18.430178,18.44325606101104
793546.1287488639,3.2926416,1.5027462,2.8690968,4.618598412444542
793548.4406240534,1.8616825,5.3457565,7.4826236,9.382570555416862
793550.7524992427,1.483603,-1.8305746,18.114315,18.266923362925656
793553.064374432,3.4027152,2.000471,3.0389934,4.981549541999517
793555.3762496213,2.6848428,5.5012956,7.398872,9.602913152355134
793557.6881248107,3.902833,-3.0916374,18.157387,18.827666608125842
793560.0,6.587676,0.27039862,2.8738825,7.1923425334504305
793562.8168736746,3.2136755,6.357957,6.3388133,9.535820965465225
793565.1287488639,1.715715,-0.27039862,17.810415,17.894906421860604
793567.4406240534,3.802331,1.6319634,2.811667,5.002648987425518
793569.7524992427,2.215833,5.597012,5.6687994,8.26872093188985
793572.064374432,0.6221561,-0.20339718,17.216974,17.229412129909576
793574.3762496213,1.7803236,3.1179593,3.275891,4.860317290162696
793576.6881248107,2.6704855,4.9461412,6.4488873,8.55476200628334
793579.0,4.194768,-3.1323166,17.367727,18.139609339866958
793580.8168736746,5.534796,0.78248096,3.82626,6.7739581340585895
793583.1287488639,3.4051082,5.1830387,6.6211767,9.071859396619187
793585.4406240534,2.6680925,-1.7683591,17.611803,17.90031889117951
793587.7524992427,3.484074,1.3184924,4.192375,5.6083154321916275
793590.064374432,1.8305746,5.1878247,6.882004,8.810590646495344
793592.3762496213,0.33979294,-0.93084127,17.659662,17.687441495769058
793594.6881248107,0.06460852,2.7662017,4.6518135,5.412523897843014
793597.0,1.6870002,3.936334,7.3007627,8.46414975269621
793599.8168736746,3.5175748,-3.618077,17.22894,17.952720885011388
793602.1287488639,3.5032175,1.483603,4.8288884,6.147501435019744
793604.4406240534,2.8786685,4.7044573,7.2648687,9.121237199451357
793606.7524992427,3.0940301,-2.6896286,17.1739,17.656442605339386
793609.064374432,2.421623,1.5553902,4.692493,5.504814909098583
793611.3762496213,1.1988469,5.254826,6.7408223,8.630707703316855
793613.6881248107,0.011964541,-0.7896597,17.001612,17.019944658858016
793616.0,-1.1150951,3.0964231,5.285934,6.226746449680894
793617.8168736746,1.4381378,3.412287,7.157188,8.058367264496068
793620.1287488639,3.0868514,-3.615684,16.4321,17.106014520148694
793622.4406240534,1.3902797,2.2325833,5.6951213,6.273094328749144
793624.7524992427,2.940884,3.8501892,7.1284733,8.61904212578553
793627.064374432,4.4460235,-4.0153,16.302883,17.368757962624766
793629.3762496213,2.6537352,1.3950654,5.434294,6.206453839386241
793631.6881248107,1.952613,5.2572193,6.537425,8.613302382169483
793634.0,0.9547703,-1.2012398,16.262203,16.334436317059584
793636.8168736746,-1.1581675,2.450338,5.984663,6.569756425916356
793639.1287488639,1.1868824,3.907619,6.975327,8.082905593752766
793641.4406240534,2.2254045,-3.2663195,16.233488,16.70770483671664
793643.7524992427,-0.16750357,1.6056414,7.1715455,7.3510003815757585
793646.064374432,2.6680925,3.0796728,6.78868,7.917656110618602
793648.3762496213,4.323985,-4.3287706,15.93916,17.073134530403294
793650.6881248107,1.225169,1.4620669,7.9444547,8.1702533118006
793653.0,2.163189,4.4986672,6.9848986,8.585231603070403
793654.8168736746,2.0244002,-2.5819478,15.702263,16.041375063655046
793657.1287488639,-1.87604,2.2732627,7.853524,8.388390107963941
793659.4406240534,0.67240715,4.182803,6.4919596,7.752000500529673
793661.7524992427,1.7037506,-3.01985,15.637654,16.017443077882824
793664.064374432,-2.2924058,2.1536174,8.868117,9.409393784040786
793666.3762496213,1.9980782,2.8786685,6.271812,7.184335361712417
793668.6881248107,5.3266134,-5.23329,15.005927,16.761204600698857
793671.0,1.3232782,0.90451926,9.193553,9.332236444181811
793673.8168736746,3.0102785,4.4149156,5.410365,7.60429522282707
793676.1287488639,3.6515777,-2.6489491,14.4412,15.129415338126194
793678.4406240534,-1.2490981,2.2277975,8.858545,9.219389745609785
793680.7524992427,0.72505116,5.7166576,4.668564,7.416290388216409
793683.064374432,1.1725249,-0.9667349,14.201909,14.282983240635657
793685.3762496213,-3.438609,2.6752713,10.12918,11.026395415360575
793687.6881248107,1.1318455,4.1062303,5.2691836,6.775433367912144
793690.0,5.7070856,-4.7044573,13.790329,15.648511701164798
793691.8168736746,0.6676214,0.5001178,11.112665,11.14392926888177
793694.1287488639,2.7877378,4.819317,5.23329,7.640983091993977
793696.4406240534,5.2380757,-3.3692145,13.847759,15.183855660141852
793698.7524992427,-0.37568656,0.8614469,11.442886,11.481414162109136
793701.064374432,1.1844895,6.013378,4.407737,7.549296378316542
793703.3762496213,2.1823323,-1.1725249,13.567789,13.792109601408491
793705.6881248107,-4.2115183,2.2732627,12.048292,12.964025216409839
793708.0,-0.4737958,5.4821525,4.917426,7.379671873385014
793710.8168736746,4.948534,-3.749687,12.615412,14.060468031927991
793713.1287488639,-1.5817122,0.62454903,12.7589855,12.87181362371725
793715.4406240534,0.6197632,5.7310147,4.8552103,7.536690452242047
793717.7524992427,6.4799953,-4.0440145,12.19426,14.389036427496885
793720.064374432,0.06221561,-0.16511066,12.694378,12.695604165184786
793722.3762496213,0.57429796,6.9848986,4.168446,8.154420191163693
793724.6881248107,4.402951,-1.2060257,11.636712,12.500141665933448
793727.0,-2.395301,1.1462029,12.845131,13.116731238221298
793729.8168736746,-1.3615648,7.1978674,4.5895977,8.644510446545084
793732.1287488639,4.4292727,-1.6008555,10.954733,11.924234570157303
793734.4406240534,-2.4479449,0.5240469,13.919546,14.142871710969864
793736.7524992427,-2.0650797,7.0231853,5.362507,9.07447889691398
793739.064374432,7.3462276,-3.6228628,10.0932865,12.998716366999775
793741.3762496213,1.3184924,-1.4213874,13.876474,14.01125601159341
793743.6881248107,-0.6125845,7.733879,6.0229497,9.821612252833612
793746.0,5.9511623,-1.1605604,9.834852,11.553681102786827
793747.8168736746,-0.2368979,-0.7872668,13.328498,13.353829734028011
793750.1287488639,-3.1897464,8.312963,6.1067014,10.796834625224374
793752.4406240534,4.1301594,0.20339718,9.317985,10.194333305443045
793754.7524992427,-1.014593,-0.8255533,13.32132,13.385383959722256
793757.064374432,-4.967677,8.006671,7.2217965,11.871770717377515
793759.3762496213,6.513496,-1.6989647,8.413465,10.774901600482814
793761.6881248107,2.68245,-2.7542372,12.627376,13.199696405665541
793764.0,-3.5271466,8.525931,8.468502,12.523888720307944
793766.8168736746,5.941591,0.25364825,8.688649,10.528982025400653
793769.1287488639,3.9459054,-3.2232473,11.706106,12.766848094417918
793771.4406240534,-2.7255223,7.6644845,8.698221,11.909317487722735
793773.7524992427,4.55849,2.1799393,8.128709,9.571200365600205
793776.064374432,2.1488314,-2.1895108,11.055236,11.472997731396909
793778.3762496213,-6.5469966,7.8128448,9.650599,14.037014262588023
793780.6881248107,3.1131735,2.1177237,7.7123427,8.582355902250105
793783.0,3.82626,-3.7903664,9.976034,11.33703653531226
793784.8168736746,-5.841089,7.159581,11.227525,14.540812853039098
793787.1287488639,3.0294216,3.122745,8.968619,9.968202362147979
793789.4406240534,6.7551794,-5.2643976,9.11698,12.508623231094225
793791.7524992427,-2.4168372,5.3218274,11.694141,13.073480127899213
793794.064374432,2.5651975,5.934412,8.626433,10.780205485204782
793796.3762496213,5.336185,-2.9648132,8.600112,10.54641712040934
793798.6881248107,-4.462774,5.0705724,12.029149,13.795922655006398
793801.0,-0.22971918,7.087794,8.119137,10.780073298121161
793803.8168736746,3.723365,-2.0914016,8.322535,9.354250178498145
793806.1287488639,-5.996628,4.194768,12.892989,14.825140515297958
793808.4406240534,-1.0026284,6.477602,8.353642,10.618282631530137
793810.7524992427,7.9803486,-4.55849,7.3462276,11.765749224279078
793813.064374432,-0.6795859,1.6176059,13.57736,13.690258960764535
793815.3762496213,0.63172776,7.6333766,8.214853,11.231710826574515
793817.6881248107,7.5663753,-2.8978117,7.0471144,10.73821070736621
793820.0,-1.0313433,1.3974583,12.940847,13.056878638484115
793821.8168736746,-1.7587874,9.380199,7.839167,12.350465807081479
793824.1287488639,4.5154176,-0.2392908,7.317513,8.60187495227194
793826.4406240534,-3.017457,0.78487384,12.529266,12.911374062830081
793828.7524992427,-4.7092433,8.822652,8.219639,12.945216338942346
793831.064374432,6.044486,-1.3567789,7.542446,9.760386859679139
793833.3762496213,1.1916683,-2.2780485,12.388085,12.652044430557543
793835.6881248107,-2.7183435,7.97317,9.258162,12.516964282570125
793838.0,7.1763315,-0.49054617,7.547232,10.42598101881151
793839.8168736746,3.8095098,-3.4721096,11.325634,12.443387621249457
793842.1287488639,-2.1249025,8.435001,9.56924,12.931929735430334
793844.4406240534,3.7807949,3.9100118,7.599876,9.345625584592037
793846.7524992427,0.9763065,-1.509925,10.574261,10.726045104496263
793849.064374432,-5.7884445,8.19571,10.516831,14.535456181910536
793851.3762496213,2.5149465,3.771223,8.490038,9.624334992872768
793853.6881248107,2.010043,-3.3428926,9.796566,10.544567757349741
793856.0,-6.477602,6.3483853,12.098543,15.120716461547353
793858.8168736746,3.4984317,2.895419,8.860939,9.956842647488555
793861.1287488639,6.274205,-5.723836,7.910954,11.60651283232983
793863.4406240534,-2.9337053,4.6207056,13.007849,14.112465505216317
793865.7524992427,2.237369,6.350778,9.901854,11.97434398557019
793868.064374432,5.5324035,-3.852582,6.767144,9.552178519598147
793870.3762496213,-3.1586387,3.409894,12.94324,13.752521122542356
793872.6881248107,-0.019143265,8.095208,9.813316,12.721396540620642
793875.0,3.4218585,-1.8712541,6.506317,7.5857015763394
793876.8168736746,-5.8674107,2.340264,13.31414,14.736677639541773
793879.1287488639,-2.9863493,7.6692705,10.421115,13.27914266761999
793881.4406240534,4.8097453,-3.153853,6.0181637,8.324586050758246
793883.7524992427,-3.5247536,0.040679436,13.211246,13.673425453402018
793886.064374432,-3.2447834,8.109566,11.318456,14.296892188346652
793888.3762496213,7.10933,-2.967206,5.8745894,9.688017604955533
793890.6881248107,0.83033913,-2.4551237,11.981291,12.258402403241291
793893.0,-2.1799393,8.63122,11.868824,14.836410522193718
793895.8168736746,4.6781354,1.0050215,6.6498914,8.192440092426027
793898.1287488639,-0.46901,-2.5723763,10.256004,10.584078054177308
793900.4406240534,-5.317042,8.463716,12.06265,15.665661466434157
793902.7524992427,2.526911,3.2687125,7.817631,8.842234732336518
793905.064374432,-0.16511066,-3.4553592,8.968619,9.612642482597138
793907.3762496213,-6.661856,7.0279713,12.928883,16.153288259238387
793909.6881248107,3.4170728,3.3740003,8.987762,10.190197756351147
793912.0,3.5582542,-5.23329,7.185903,9.575264962460654
793913.8168736746,-4.051193,5.726229,13.46968,15.18664355893329
793916.1287488639,2.8738825,6.1593456,10.457008,12.471798393018931
793918.4406240534,4.118195,-4.4603806,4.9269977,7.818556867522718
793920.7524992427,-4.137338,4.8815327,12.423979,13.975055685751462
793923.064374432,-0.25125536,9.69367,12.098543,15.505002742588525
793925.3762496213,2.680057,-2.1296883,4.314413,5.507489202256768
793927.6881248107,-4.625491,2.4288018,11.406993,12.54646302655905
793930.0,-1.7587874,9.308413,13.242353,16.281885599449982
793932.8168736746,4.2330546,-2.342657,4.6159196,6.686815895468809
793935.1287488639,-2.526911,-0.07418015,10.794409,11.086480395321864
793937.4406240534,-1.9908996,9.463951,14.122944,17.11688046855551
793939.7524992427,6.345992,-1.430959,4.8217096,8.097415735311925
793942.064374432,0.79205257,-2.112938,9.389771,9.657103794509439
793944.3762496213,-1.328064,10.193789,14.520166,17.790792810669597
793946.6881248107,5.1758604,2.239762,6.269419,8.432774116178683
793949.0,0.8877689,-3.3404996,7.37255,8.142577276262557
793950.8168736746,-3.4194658,9.60274,13.804687,17.160266461594897
793953.1287488639,2.603484,5.4031863,8.6048975,10.488889937275056
793955.4406240534,0.4402951,-4.2593765,5.9224477,7.308319553978983
793957.7524992427,-5.1662884,7.4945884,12.852309,15.74932499343607
793960.064374432,2.6920216,6.0779867,10.899696,12.766842816948106
793962.3762496213,3.1131735,-5.62812,5.005964,8.150291991382778
793964.6881248107,-3.0126712,5.2978983,12.488587,13.896356335853703
793967.0,3.0796728,7.896597,13.383535,15.841705647804906
793969.8168736746,5.061001,-5.5084743,3.7927594,8.387016400487711
793972.1287488639,-1.5218896,3.1466742,11.093522,11.631162316811583
793974.4406240534,0.92366254,10.744158,14.9819975,18.459423953817453
793976.7524992427,3.2830698,-2.6920216,3.82626,5.715399653054772
793979.064374432,-3.1490672,1.0528796,8.691042,9.303729936319948
793981.3762496213,-2.3211207,11.438101,15.721406,19.580101184799975
793983.6881248107,3.206497,-0.80880296,5.0346785,6.023601317938963
793986.0,-1.4429235,-2.0698655,7.238547,7.665698538695055
793987.8168736746,-2.2421548,10.031071,15.518009,18.613388914388615
793990.1287488639,5.1710744,0.4402951,6.6594634,8.442885940326265
793992.4406240534,1.6630712,-4.448416,5.912876,7.583951036016876
793994.7524992427,-1.4405307,9.423272,15.027463,17.796005959203193
793997.064374432,5.29072,4.020086,9.081086,11.252507831820958
793999.3762496213,2.7518444,-5.573083,4.0296574,7.407431436609799
794001.6881248107,-2.2062612,8.446965,13.14903,15.783402552515426
794004.0,2.524518,8.791544,12.378513,15.391296928050899
794006.8168736746,1.8018597,-5.0155354,3.3883579,6.315319705733801
794009.1287488639,-3.1921394,5.017928,10.684335,12.228015773396818
794011.4406240534,1.1031306,9.932961,14.9915695,18.01742954534602
794013.7524992427,2.3450499,-4.4125223,3.8477962,6.306754131740172
794016.064374432,-2.866704,2.2541194,9.456773,10.13556124082931
794018.3762496213,0.9212696,10.07175,16.372276,19.244227891982575
794020.6881248107,5.2978983,-4.300056,3.6348274,7.731117527762053
794023.0,0.3828653,-0.47618872,7.808059,7.831929958987142
794024.8168736746,1.5769265,11.426136,17.319868,20.80915924813692
794027.1287488639,5.4295087,-0.6197632,4.886318,7.330741759506601
794029.4406240534,0.95237744,-3.0270288,5.49651,6.346774639480308
794031.7524992427,0.004785816,10.823123,16.049234,19.357632250973253
794034.064374432,2.9097762,4.132552,7.6884136,9.200896002643187
794036.3762496213,-0.70830077,-4.225876,4.4125223,6.150615497343
794038.6881248107,-3.1203523,8.676684,13.981762,16.74846596965272
794041.0,2.8284173,5.6640134,10.574261,12.324609036981247
794043.8168736746,1.6439278,-5.927233,4.240233,7.4708878683989655
794046.1287488639,-0.82076746,5.7142644,12.49098,13.760489025354522
794048.4406240534,5.0657864,7.075829,12.912132,15.570892738474887
794050.7524992427,3.9100118,-6.092344,3.5367181,8.056874245595674
794053.064374432,-0.15075321,4.2569833,10.492902,11.324558522450587
794055.3762496213,3.4673238,10.681942,15.187788,18.889021244054824
794057.6881248107,3.3213565,-3.926762,3.6563635,6.31029815847623
794060.0,-0.46183127,0.6867646,8.303391,8.344533290522842
794062.8168736746,1.6463208,10.777658,15.762086,19.165376051955587
794065.1287488639,1.8210031,-1.0074143,5.2643976,5.660814248227887
794067.4406240534,-2.2086542,-1.1294526,7.080615,7.502594573149305
794069.7524992427,-0.16750357,9.657777,15.735764,18.463883196429393
794072.064374432,3.9387267,-0.20339718,6.7910733,7.853255057369379
794074.3762496213,0.63172776,-3.771223,6.4106007,7.464382373199011
794076.6881248107,1.1342385,8.518753,15.087286,17.363232662603103
794079.0,4.6972785,2.9719918,8.497216,10.153809153046234
794080.8168736746,1.3902797,-4.867175,5.001178,7.115760782413999
794083.1287488639,0.06221561,7.8774533,12.981526,15.184800247763702
794085.4406240534,3.2471762,7.473052,11.040878,13.721940332162736
794087.7524992427,0.6460852,-4.7283864,4.455595,6.528965525823291
794090.064374432,-0.9691278,5.1160374,10.827909,12.01485167129468
794092.3762496213,2.474267,8.832224,12.931275,15.853960107780326
794094.6881248107,0.1483603,-4.1229806,4.630277,6.20164856335164
794097.0,-2.7542372,2.9624202,9.408915,10.24155444610128
794099.8168736746,1.5601761,9.131337,14.443593,17.159045533485514
794102.1287488639,1.6271775,-3.5702188,4.9533195,6.3189827476786125
794104.4406240534,-0.75615895,0.93802,8.552254,8.63670691632992
794106.7524992427,2.8164527,9.827674,15.415114,18.4970625152917
794109.064374432,3.5199678,-1.6606783,5.522832,6.756456099861209
794111.3762496213,0.72744405,-1.3663505,7.9133472,8.06332142745646
794113.6881248107,3.4170728,9.5500965,15.407935,18.446820610718724
794116.0,2.3857293,1.5769265,6.405815,7.015188329154516
794117.8168736746,-1.7898953,-2.421623,6.2239537,6.914158141005656
794120.1287488639,-0.16750357,9.124159,14.139694,16.82882293319648
794122.4406240534,1.5242825,4.7499228,8.372786,9.746217171167595
794124.7524992427,-0.3254355,-3.6300416,5.771694,6.826094191558362
794127.064374432,1.9861137,6.613998,13.74965,15.386438583890415
794129.3762496213,4.955713,4.974856,9.657777,11.940726114472017
794131.6881248107,1.1342385,-4.6398487,5.0466433,6.948618677925047
794134.0,0.5288327,6.5182815,12.179902,13.824531473704111
794135.8168736746,3.3237493,8.511574,11.337599,14.56143373612391
794138.1287488639,0.48815325,-3.8095098,4.400558,5.840853467015381
794140.4406240534,0.4091873,4.5680614,10.765694,11.701913796567093
794142.7524992427,2.8020954,10.418722,13.043742,16.927513464964346
794145.064374432,-0.19382556,-2.031579,4.6398487,5.068833942815843
794147.3762496213,-0.61497736,2.160796,9.095444,9.368795977288896
794149.6881248107,3.3476784,9.607526,13.522324,16.922315233781653
794152.0,1.0911661,-1.1390243,5.211754,5.445218046166351
794153.8168736746,0.08375178,0.95955616,9.320377,9.370015464607095
794156.1287488639,4.757101,8.971012,14.21866,17.472245374420112
794158.4406240534,3.0653152,-0.9188767,4.8528175,5.812944981114149
794160.7524992427,0.2584341,0.004785816,8.049743,8.053891820364028
794163.064374432,3.5534685,10.461794,14.594346,18.304950348106498
794165.3762496213,1.6367491,2.6680925,5.4630094,6.296200196102044
794167.6881248107,-0.33979294,-1.9047549,6.843717,7.111962657891059
794170.0,3.4027152,8.592933,13.778365,16.590970747609227
794172.8168736746,1.0457008,5.228504,6.953791,8.762759469072378
794175.1287488639,-1.3472073,-1.87604,6.369921,6.775720414613806
794177.4406240534,2.967206,6.925076,13.254318,15.24591534468613
794179.7524992427,4.070337,5.1471453,7.5352674,9.992046978591716
794182.064374432,0.10050214,-2.4072654,6.4177794,6.8551382052622465
794184.3762496213,2.2565124,7.138045,13.56061,15.489792710216582
794186.6881248107,3.776009,6.987292,8.547467,11.667891222386075
794189.0,0.30629224,-2.9815636,5.228504,6.0266732543871315
794191.8168736746,2.5891266,5.9056973,12.234939,13.83020496897193
794194.1287488639,3.8669395,9.341913,9.822887,14.096583579399592
794196.4406240534,0.019143265,-1.691786,5.0466433,5.32269808760799
794198.7524992427,2.7446656,3.6061125,12.270833,13.080924246106184
794201.064374432,5.6999073,8.245961,10.665192,14.636636787150874
794203.3762496213,0.22493336,-1.5075321,4.685314,4.927008760654613
794205.6881248107,0.2943277,3.3237493,11.402207,11.880415088501191
794208.0,5.123216,9.121766,11.452458,15.511697243795599
794209.8168736746,1.3687434,-0.72505116,4.144517,4.424497580850271
794212.1287488639,2.0028641,2.2493336,11.086343,11.488166405515145
794214.4406240534,7.133259,9.688885,12.263654,17.180078170253534
794216.7524992427,1.8257889,1.2730271,4.0440145,4.6160758638596775
794219.064374432,0.23211208,1.5984626,10.0837145,10.212260122949813
794221.3762496213,4.9533195,9.978427,12.440729,16.69958435155948
794223.6881248107,-0.22732627,3.6922572,4.44363,5.78189311911626
794226.0,-1.6080343,1.067237,9.315591,9.513411838211699
794228.8168736746,4.840853,8.260319,12.892989,16.059137371088493
794231.1287488639,2.1895108,3.206497,4.7762446,6.155330456876771
794233.4406240534,-0.057429794,0.17468229,9.014085,9.015960318840335
794235.7524992427,6.058843,7.6955924,12.797273,16.115269688159607
794238.064374432,3.670721,4.4173083,4.6542063,7.392458424641263
794240.3762496213,0.81358874,-0.39482984,8.372786,8.4214822117134
794242.6881248107,6.587676,7.188296,13.055707,16.29480161690964
794245.0,3.0389934,7.0279713,4.924605,9.103823146617703
794246.8168736746,-1.5553902,0.30150643,7.547232,7.711734932128528
794249.1287488639,3.5773976,6.43453,13.005455,14.944658231836911
794251.4406240534,1.6965718,8.021028,6.0301285,10.177312797386719
794253.7524992427,-2.28762,0.31347096,7.3462276,7.7005538280155585
794256.064374432,3.4792883,4.6494203,13.534288,14.72750854243558
794258.3762496213,5.156717,6.271812,6.1282377,10.172642394635442
794260.6881248107,0.014357449,-0.7394086,6.9609694,7.000144727206153
794263.0,4.1995535,4.769066,14.536917,15.86512514846975
794265.8168736746,5.494117,7.942062,6.781502,11.800442356010938
794268.1287488639,-0.13639577,-0.71787244,5.826731,5.8723707982846625
794270.4406240534,4.6398487,2.8810613,13.941083,14.972725382713008
794272.7524992427,6.1497736,9.33952,6.9370403,13.159364623167832
794275.064374432,-1.5960697,1.8664683,5.5898333,6.105520348336566
794277.3762496213,2.5628045,1.8090385,14.039192,14.385391868578571
794279.6881248107,7.2792263,7.6668777,7.083008,12.725452900444564
794282.0,-1.1270597,2.184725,5.5324035,6.053988386163401
794283.8168736746,0.8446966,2.392908,14.242589,14.466888485968108
794286.1287488639,7.0183992,7.7673798,7.9540267,13.147496226746808
794288.4406240534,-0.19861138,1.8856115,5.077751,5.420196714806461
794290.7524992427,1.8784329,0.72983694,13.735292,13.88234196539096
794293.064374432,8.597719,7.678842,7.7003784,13.862943914158766
794295.3762496213,-0.37568656,4.2904844,4.8097453,6.456240905424773
794297.6881248107,0.7992313,0.17946811,13.199281,13.224673848166073
794300.0,8.712579,6.561354,7.992313,13.521740503149955
794302.8168736746,-1.0504867,6.0301285,5.0155354,7.913379011651236
794305.1287488639,-0.9451987,0.5336185,12.814023,12.859911925458624
794307.4406240534,8.626433,4.955713,8.837009,13.306658698108215
794309.7524992427,0.84230363,5.1686816,4.635063,6.9934650854393166
794312.064374432,-0.6173703,0.045465253,12.830773,12.845697682651629
794314.3762496213,8.920761,4.656599,9.629062,13.927768165279245
794316.6881248107,1.1103094,6.5278535,4.637456,8.08403713704524
794319.0,-0.7657306,-0.57429796,12.49098,12.527599245627094
794320.8168736746,9.131337,3.1323166,10.382828,14.177300164974591
794323.1287488639,0.2680057,8.186138,4.608741,9.398147477846763
794325.4406240534,-3.3620358,0.62454903,11.787465,12.273454173034606
794327.7524992427,6.9896846,2.421623,10.801587,13.091761931847644
794330.064374432,1.3376356,7.5448394,4.556097,8.91470080505166
794332.3762496213,-2.7662017,0.14118157,12.098543,12.411548928463343
794334.6881248107,8.116744,1.0648441,12.175117,14.67136326598622
794337.0,4.613527,6.4536734,3.9626558,8.867760299132481
794339.8168736746,-1.1677392,-0.9021264,11.598426,11.691917402986972
794342.1287488639,8.954262,-0.2991135,12.825988,15.645262702385994
794344.4406240534,4.6278844,8.518753,3.5630403,10.328684469679402
794346.7524992427,-3.986585,1.7587874,10.691513,11.545329935077334
794349.064374432,5.204575,-0.42354473,13.177745,14.174623605371705
794351.3762496213,3.82626,8.868117,3.8310459,10.390412763754663
794353.6881248107,-5.49651,3.2926416,10.349327,12.172168263669361
794356.0,3.309392,-0.6939433,13.981762,14.384828860223637
794358.8168736746,6.4536734,6.606819,3.874118,10.015425499226309
794361.1287488639,-3.1586387,1.9573988,9.978427,10.647883071000926
794363.4406240534,4.08948,-1.3998512,14.72835,15.349518682194613
794365.7524992427,7.942062,6.745608,4.0057282,11.163576242127037
794368.064374432,-2.9265265,2.94567,9.33952,10.220966829733001
794370.3762496213,3.7161863,-2.0148287,14.457951,15.063264003032423
794372.6881248107,8.329713,6.987292,3.8310459,11.527501066733407
794375.0,-4.560883,5.6616206,8.868117,11.467305729059566
794376.8168736746,0.8638398,-1.3400285,14.307198,14.395756673133937
794379.1287488639,8.576182,5.3313994,4.319199,10.983177921760412
794381.4406240534,-3.5510757,4.9461412,8.688649,10.609763090789018
794383.7524992427,0.5001178,-1.3639576,14.48188,14.554564455279127
794386.064374432,9.679314,4.742744,4.6015625,11.719945290040318
794388.3762496213,-1.4046371,4.6542063,8.025814,9.383407271788437
794390.6881248107,2.1416528,-2.5412683,14.594346,14.967954317676439
794393.0,11.289741,4.2306614,4.979642,13.04429308842357
794395.8168736746,-2.3737648,7.415622,7.286405,10.66385984513244
794398.1287488639,-0.5934412,-1.4285661,14.4483795,14.530954673934774
794400.4406240534,9.894675,3.0916374,5.8386955,11.897612378558312
794402.7524992427,-3.0533507,7.6573057,7.42998,11.097832395600637
794405.064374432,-2.940884,-0.5072965,14.534524,14.837740270908649
794407.3762496213,8.652756,2.5675905,6.501531,11.123516202855429
794409.6881248107,-1.1773108,6.1832747,7.398872,9.714023554008953
794412.0,-0.95237744,-2.165582,14.960462,15.146359015961194
794413.8168736746,10.868588,1.3160994,6.9920774,12.99028364247737
794416.1287488639,0.34697166,7.44673,6.24549,9.725241506813244
794418.4406240534,-0.9954498,-1.4788172,14.599133,14.70756624894224
794420.7524992427,10.937983,0.78248096,7.3773355,13.216536143809078
794423.064374432,-0.22732627,9.578811,5.7142644,11.156079734380732
794425.3762496213,-4.166053,1.0792016,14.022442,14.66797713850194
794427.6881248107,8.128709,0.67001426,7.8798466,11.34093521517586
794430.0,1.0050215,8.389536,5.2955055,9.97179828372438
794431.8168736746,-3.8142955,1.1031306,14.115765,14.663579672685712
794434.1287488639,8.250747,0.46422416,8.540289,11.883891043435971
794436.4406240534,3.0796728,7.9444547,4.936569,9.847256395929422
794438.7524992427,-2.0985804,0.33022133,14.110979,14.269996992308448
794441.064374432,9.432844,-0.7441944,8.875296,12.973174257711308
794443.3762496213,3.1155663,9.28209,4.194768,10.651761671743303
794445.6881248107,-4.773852,2.8714898,13.32132,14.439275713546301
794448.0,6.1306305,-0.16750357,8.844189,10.762544626677002
794449.8168736746,2.9217408,9.167231,3.926762,10.39202354281348
794452.1287488639,-5.2213254,3.7161863,13.31414,14.776285172146375
794454.4406240534,5.7310147,-0.05025107,9.480701,11.07839095325008
794456.7524992427,5.5443683,7.4347653,3.7568657,10.006487635527536
794459.064374432,-2.3474429,1.978935,13.713757,14.05324883996702
794461.3762496213,8.0617075,-1.251491,10.064571,12.955807460466456
794463.6881248107,6.7264647,8.281855,3.01985,11.088459930209925
794466.0,-3.228033,3.4003224,13.498395,14.289473644926735
794468.8168736746,6.8054304,-1.6199988,10.363685,12.503769264524623
794471.1287488639,5.723836,8.420644,3.1275308,10.651337607764606
794473.4406240534,-5.798016,5.21654,13.35482,15.465461400820088
794475.7524992427,3.484074,-0.3613291,10.196181,10.781068469346803
794478.064374432,5.831517,7.6333766,3.1682103,10.114968380758421
794480.3762496213,-3.8621538,3.8812969,13.565396,14.628761609843126
794482.6881248107,5.8195524,-1.509925,10.825516,12.383006917070942
794485.0,8.497216,7.394086,2.5460541,11.548055204499969
794486.8168736746,-2.1201165,3.9124048,13.443357,14.160708058641854
794489.1287488639,7.367764,-2.5939124,11.12463,13.593002631334615
794491.4406240534,8.777187,7.573554,2.3019776,11.81934146620643
794493.7524992427,-4.5919905,6.2095966,12.835559,14.97988790109268
794496.064374432,3.596541,-1.1222739,10.65562,11.302072529217915
794498.3762496213,7.6118407,7.3557997,2.2589052,10.82361126294194
794500.6881248107,-4.3670573,6.2622404,13.539074,15.543274078081215
794503.0,4.070337,-0.9547703,11.210774,11.964977363054519
794505.8168736746,9.47113,6.046879,1.9741492,11.40895762904752
794508.1287488639,-1.2586696,4.1229806,13.555824,14.22475245861651
794510.4406240534,7.2481184,-2.4359803,10.959519,13.363393172161315
794512.7524992427,10.461794,6.9466124,1.4285661,12.639041048922143
794515.064374432,-3.0772798,6.556568,13.237568,15.089448017099102
794517.3762496213,4.8719606,-1.8545038,10.691513,11.894689346987413
794519.6881248107,8.992549,6.3651357,1.3328499,11.097629424915283
794522.0,-4.6159196,7.209832,13.548646,16.02667150893173
794524.8168736746,2.8906329,-0.31825677,10.459401,10.85615563691928
794527.1287488639,8.748472,5.8626246,1.354386,10.617932518730054
794529.4406240534,-1.7324655,4.544132,14.522559,15.315198080684274
794531.7524992427,6.929862,-2.2732627,11.002591,13.200292396592445
794534.064374432,10.476151,5.807588,1.1797037,12.036175429609637
794536.3762496213,-2.4790528,4.974856,14.35027,15.389124214159292
794538.6881248107,5.527618,-2.4264088,10.358899,11.989529136327349
794541.0,8.04735,6.8963614,1.3400285,10.68247719223974
794542.8168736746,-5.577869,6.8221807,14.642204,17.089438553159944
794545.1287488639,3.0605295,-1.5218896,10.193789,10.751573045442209
794547.4406240534,7.63577,5.807588,1.2419193,9.673439172205327
794549.7524992427,-3.7855806,4.656599,15.211717,16.35270218691658
794552.064374432,5.2189326,-2.1416528,10.296683,11.740767223720075
794554.3762496213,8.49961,6.637927,1.3831009,10.87282912166883
794556.6881248107,-2.5484471,3.9195836,15.989412,16.658901954349552
794559.0,7.91574,-4.6900997,10.734586,14.13815092347426
794561.8168736746,9.344306,5.6352987,1.4740313,11.01114954640238
794564.1287488639,-4.611134,5.577869,15.714228,17.300639900971902
794566.4406240534,4.9820347,-2.7470584,10.320613,11.784822964337803
794568.7524992427,7.449123,5.568297,1.8377534,9.480121439546519
794571.064374432,-4.7403507,4.2665553,16.451242,17.644199676650473
794573.3762496213,4.5393467,-2.0244002,9.696064,10.895757051469941
794575.6881248107,6.408208,7.1165085,1.6223917,9.712979863567368
794578.0,-2.9073834,3.3716075,17.066221,17.63736132729306
794579.8168736746,9.162445,-4.941355,10.430686,14.73657348384101
794582.1287488639,9.045193,5.384043,1.7324655,10.667936639378219
794584.4406240534,-3.8669395,4.008121,16.518244,17.431885723892215
794586.7524992427,6.0038066,-3.1059947,8.815474,11.108801853094134
794589.064374432,6.2167754,6.743215,1.7276796,9.332958893648163
794591.3762496213,-4.9533195,4.5895977,17.219366,18.496117067073335
794593.6881248107,5.7740874,-2.7159507,8.980584,11.016685639915721
794596.0,6.707321,6.202418,1.5529974,9.266603745071425
794598.8168736746,-2.187118,2.6513422,17.21458,17.5543403517143
794601.1287488639,9.126552,-3.8693323,8.34407,12.957206026818717
794603.4406240534,7.3318706,6.980113,1.8784329,10.29596105993587
794605.7524992427,-3.3022132,3.9482985,17.243296,17.995136287535377
794608.064374432,7.8272023,-3.9482985,8.059315,11.908262474410469
794610.3762496213,5.75973,6.396243,1.8568966,8.805366498394065
794612.6881248107,-5.1926107,4.7977805,17.21458,18.60977345870537
794615.0,5.2572193,-1.0457008,7.238547,9.007130930691645
794616.8168736746,4.513025,6.381886,3.1466742,8.425996800887514
794619.1287488639,-1.9980782,1.1366314,18.418213,18.561110353266862
794621.4406240534,9.234232,-3.3692145,6.8580747,11.985651236691911
794623.7524992427,5.053822,6.968148,2.837989,9.063684952694958
794626.064374432,-2.2230117,1.6798215,18.200459,18.412503607627077
794628.3762496213,9.7176,-3.9147975,6.396243,12.274742919550505
794630.6881248107,4.307235,7.16676,3.409894,9.030066408064839
794633.0,-4.1421237,3.5486827,17.920488,18.73217093156917
794635.8168736746,7.2002606,-1.4357449,5.3242207,9.069313214797296
794638.1287488639,3.3476784,6.817395,4.2019467,8.679872195228018
794640.4406240534,-2.2110472,1.5936768,18.31532,18.517005215905893
794642.7524992427,9.066729,-1.6630712,4.8025665,10.394037981585054
794645.064374432,3.5462897,7.135652,4.836067,9.321010896352343
794647.3762496213,-0.5001178,0.2584341,18.212423,18.221121192968578
794649.6881248107,11.246668,-3.0748868,3.9387267,12.306747659407465
794652.0,3.1610315,7.731486,5.211754,9.845322527408854
794653.8168736746,-2.866704,2.2971919,17.719484,18.096275740474823
794656.1287488639,8.262712,-1.4907818,3.1634245,8.972295945707291
794658.4406240534,1.7731448,6.824574,5.809981,9.136450732292275
794660.7524992427,-2.184725,1.4740313,17.547195,17.744008678058904
794663.064374432,8.77958,-0.18903974,2.524518,9.1372836298335
794665.3762496213,1.823396,6.8891826,7.6190195,10.432404708902881
794667.6881248107,0.84708947,-1.2060257,17.980312,18.04061191247651
794670.0,11.794644,-2.2254045,2.3761578,12.235692794682985
794672.8168736746,1.0098072,7.193082,8.571397,11.23516736731166
794675.1287488639,-1.2706342,0.15553902,17.429943,17.476888070826604
794677.4406240534,9.30602,-0.78008807,1.4046371,9.44370430604711
794679.7524992427,-0.3804724,6.2837768,9.901854,11.733598031153786
794682.064374432,-1.2730271,-0.08135887,16.870003,16.91816238493623
794684.3762496213,8.758043,1.2467052,0.16271774,8.84782844027091
794686.6881248107,-0.014357449,5.953555,11.459637,12.913880262962632
794689.0,2.5197322,-2.7207365,16.601995,17.01110506234601
794691.8168736746,11.854466,-0.12203831,-0.25364825,11.857807340692956
794694.1287488639,-0.69633627,6.9920774,12.055471,13.953795598343458
794696.4406240534,0.86623275,-1.5290682,15.853016,15.95012617610531
794698.7524992427,9.834852,0.54797596,-0.7681235,9.88001038592036
794701.064374432,-2.2014754,6.295741,13.522324,15.077668753386982
794703.3762496213,-0.4402951,-0.6125845,14.960462,14.979470711549466
794705.6881248107,7.9635983,2.9600272,-1.6846073,8.661325571973151
794708.0,-1.1342385,4.9772487,15.486901,16.306550959057372
794709.8168736746,4.0751224,-3.7855806,14.824065,15.833197598031267
794712.1287488639,10.538367,1.7659662,-1.6941789,10.818782639069733
794714.4406240534,-2.371372,5.8363028,15.69987,16.916611763369517
794716.7524992427,2.4670882,-2.5986981,13.397892,13.868787475665885
794719.064374432,8.844189,2.6130557,-1.8736471,9.41054156860071
794721.3762496213,-3.35725,5.8554463,16.652246,17.968157272775628
794723.6881248107,1.2921704,-1.2682413,12.378513,12.51022479529568
794726.0,7.2696548,3.955477,-2.0531151,8.526954956052016
794727.8168736746,-1.3878866,3.4768956,17.977919,18.363567295008885
794730.1287488639,5.903304,-4.000942,11.945397,13.912190499392574
794732.4406240534,9.889889,3.3955367,-1.457281,10.557615347526585
794734.7524992427,-1.2203832,3.8477962,18.590504,19.023714404016705
794737.064374432,5.568297,-3.82626,10.763301,12.70806222381721
794739.3762496213,7.7386646,3.933941,-1.277813,8.774715245849471
794741.6881248107,-4.292877,5.391222,18.403856,19.651869714079346
794744.0,2.108152,-0.9834852,9.507024,9.787494742287171
794745.8168736746,5.211754,4.716422,-0.3517575,7.037808577775204
794748.1287488639,-1.8832186,2.2828343,19.282053,19.50782952128328
794750.4406240534,5.6448703,-2.4670882,8.446965,10.454774153544703
794752.7524992427,6.396243,5.125609,0.79205257,8.234751933699862
794755.064374432,-0.8159817,1.742037,19.798922,19.892155021670927
794757.3762496213,7.3318706,-3.8142955,7.530482,11.18093626709269
794759.6881248107,5.57069,5.003571,1.6152129,7.660105909220015
794762.0,-3.4457877,3.3524642,19.37777,19.96523075896327
794764.8168736746,3.7137933,-0.8542682,6.322063,7.381769124581528
794767.1287488639,3.3165705,5.1088586,3.017457,6.797435017939724
794769.4406240534,-1.1820966,0.9451987,19.585953,19.644345442707483
794771.7524992427,6.487174,-1.2443122,5.372079,8.514163032241386
794774.064374432,4.307235,5.0657864,4.345521,7.94342608432224
794776.3762496213,0.5910483,-0.54079723,19.48545,19.50191173806836
794778.6881248107,8.157424,-2.0914016,3.7831876,9.232011448490104
794781.0,3.2878556,5.9200544,5.5324035,8.744399752540078
794782.8168736746,-1.430959,1.2634555,19.396914,19.49061918420134
794785.1287488639,6.0612364,-0.5240469,2.8188457,6.70515495201215
794787.4406240534,2.7733805,4.680528,6.7240715,8.649399938358528
794789.7524992427,0.24646953,-0.13878867,19.081049,19.08314545520575
794792.064374432,7.0399356,0.34218585,1.8616825,7.28996887091391
794794.3762496213,2.6680925,4.7475295,8.054528,9.722817248344766
794796.6881248107,1.3567789,-0.95955616,18.535465,18.609810847343507
794799.0,7.554411,0.52165395,0.30629224,7.578592437699485
794801.8168736746,0.3517575,5.932019,8.98537,10.77262534353011
794804.1287488639,-1.5529974,0.9164838,17.449085,17.54201558593807
794806.4406240534,5.106466,2.00765,-0.4091873,5.50218936225729
794808.7524992427,1.1079165,4.170839,10.698692,11.536264015952359
794811.064374432,1.2036327,-1.2108115,17.561552,17.64434483945906
794813.3762496213,7.0423284,1.8210031,-0.75615895,7.31315376163535
794815.6881248107,2.1177237,3.1275308,12.35937,12.923630657496767
794818.0,3.0868514,-2.759023,17.171509,17.663566480676884
794819.8168736746,8.095208,1.509925,-1.5290682,8.375578525041732
794822.1287488639,-0.39722276,4.8576035,13.467287,14.32207795065518
794824.4406240534,-0.24168372,-0.22732627,16.132986,16.13639753878607
794826.7524992427,5.5515466,2.8714898,-1.3352427,6.391243728053162
794829.064374432,0.19143265,2.6752713,15.240432,15.474640239266105
794831.3762496213,0.83033913,-1.4692456,15.3840065,15.47629806174496
794833.6881248107,5.597012,3.2184613,-1.8808258,6.724770788486945
794836.0,1.4166015,1.0815945,16.288525,16.38574542545616
794838.8168736746,3.4553592,-3.0581365,14.658955,15.36804046538406
794841.1287488639,7.2481184,3.175389,-2.495803,8.297430220046962
794843.4406240534,-0.21775463,3.3787863,16.549353,16.89214902428235
794845.7524992427,1.3448143,-0.80641,13.711364,13.800736405354625
794848.064374432,6.116273,3.2950344,-2.0172215,7.234309205983291
794850.3762496213,0.39482984,1.7635733,16.745571,16.842809430230705
794852.6881248107,0.75615895,-0.21296883,12.450301,12.475060203093918
794855.0,5.1375737,4.113409,-1.5386399,6.758861580627665
794857.8168736746,2.3019776,-0.004785816,17.879808,18.02738633002024
794860.1287488639,4.084694,-2.0459363,11.832931,12.68419632724339
794862.4406240534,6.606819,3.9171906,-1.509925,7.827791067799035
794864.7524992427,0.46422416,1.7659662,17.71709,17.810935370113782
794867.064374432,1.7587874,-0.42354473,10.859017,11.0086771895173
794869.3762496213,4.8647823,3.8166883,-0.5431901,6.2071146187651625
794871.6881248107,-0.25364825,1.1485959,17.808022,17.846827660083147
794874.0,0.43550926,0.60779864,10.212932,10.24026696619554
794875.8168736746,4.2833056,3.5343254,0.95237744,5.6342866171590416
794878.1287488639,2.5197322,-1.7875023,18.31532,18.574045373440384
794880.4406240534,3.3357139,-0.72744405,9.203125,9.815990619094876
794882.7524992427,4.529775,4.03205,1.9095407,6.357879712457722
794885.064374432,0.7657306,-0.36850783,18.781935,18.801149531791207
794887.3762496213,1.87604,0.055036888,8.193317,8.405533808338989
794889.6881248107,3.5821834,3.7257578,2.782952,5.870104848280003
794892.0,0.17946811,-0.16271774,18.93269,18.93423979201483
794894.8168736746,0.93084127,0.9284483,7.934883,8.043062224016243
794897.1287488639,3.9985495,2.184725,3.649185,5.837634160668195
794899.4406240534,2.782952,-2.5364826,18.31771,18.70072366135885
794901.7524992427,2.4575167,1.170132,6.7145,7.245212728291896
794904.064374432,3.3668218,3.2926416,4.2809124,6.364211554896612
794906.3762496213,0.9021264,-0.9499845,17.956383,18.004110448297805
794908.6881248107,1.1725249,2.0363648,5.5898333,6.063648453001537
794911.0,2.6728783,3.2399976,4.7212076,6.3191505803323285
794912.8168736746,0.208183,-0.45943835,17.863058,17.870178087257653
794915.1287488639,0.45943835,2.5843408,5.8554463,6.416864681460802
794917.4406240534,4.2833056,0.86862564,5.7310147,7.207339790593535
794919.7524992427,3.3740003,-3.3381069,17.571125,18.20085903098677
794922.064374432,1.8521109,2.6369848,5.2524333,6.162147287454166
794924.3762496213,3.309392,2.234976,7.0351496,8.08953169377685
794926.6881248107,2.1584032,-2.3282995,18.188494,18.463504459433114
794929.0,1.9071478,2.3450499,4.9963923,5.839555443698959
794931.8168736746,2.8044882,1.6846073,7.130866,7.845527753383359
794934.1287488639,-0.24407662,-1.2825987,17.898952,17.94650705624848
794936.4406240534,-1.5553902,3.7161863,4.998785,6.420056913049037
794938.7524992427,3.0342073,0.1459674,8.140674,8.688975405392286
794941.064374432,2.3306925,-3.1610315,17.769735,18.198563944547207
794943.3762496213,0.6532639,3.6348274,4.5489182,5.8592986560786615
794945.6881248107,3.7018287,0.39482984,8.166995,8.975479578090694
794948.0,2.1966896,-2.3641932,17.367727,17.665016157145267
794949.8168736746,0.44747382,4.4364514,3.8645465,5.900597723520017
794952.1287488639,2.5891266,1.7085364,8.5043955,9.052481206905252
794954.4406240534,0.31825677,-0.89734054,17.365334,17.391415478561093
794956.7524992427,-1.1916683,4.3885937,3.9722273,6.03808063243361
794959.064374432,3.8430104,-0.7130866,7.702771,8.637702386170105
794961.3762496213,1.3783151,-1.8257889,16.67139,16.82761130268795
794963.6881248107,-1.3256711,5.5443683,4.343128,7.1666020215862485
794966.0,4.618313,-0.5001178,8.746079,9.903172756954554
794968.8168736746,3.8956544,-2.9313123,16.786251,17.479900961944026
794971.1287488639,1.2060257,4.5178103,3.8119025,6.032885591933003
794973.4406240534,3.4194658,1.0815945,8.023421,8.788508267222651
794975.7524992427,0.028714897,-0.5168682,16.858038,16.86598418388103
794978.064374432,-2.5221252,5.4247227,4.625491,7.5620036291614765
794980.3762496213,3.3357139,-0.105287954,8.150245,8.807074788823796
794982.6881248107,0.83991075,-1.6774286,16.767107,16.87172468734339
794985.0,-2.392908,5.1447525,5.3313994,7.785775911560813
794986.8168736746,4.8552103,-1.5410328,8.320142,9.755645137460974
794989.1287488639,3.328535,-3.5295393,16.664211,17.356057189609356
794991.4406240534,-0.95955616,5.080144,4.8312817,7.076008334483844
794993.7524992427,2.8451676,1.1868824,7.791309,8.379031234993729
794996.064374432,0.8614469,-1.1677392,16.898718,16.960907276565727
794998.3762496213,-1.9813279,5.080144,5.388829,7.666355150871594
795000.6881248107,3.874118,0.031107806,7.193082,8.170078740883845
795003.0,0.75615895,-1.6199988,16.714462,16.809801082080376
795004.8168736746,-3.7927594,5.565904,6.3603497,9.263819919978715
795007.1287488639,4.4843097,-1.196454,7.049507,8.440147190818362
795009.4406240534,3.0892444,-3.2304258,16.03727,16.648516776732304
795011.7524992427,-2.2062612,5.7645154,6.484781,8.952631506848899
795014.064374432,3.5103962,0.832732,7.305548,8.147843619332814
795016.3762496213,2.2014754,-2.500589,16.223917,16.5624551956108
795018.6881248107,-2.4766598,5.1016803,6.5661397,8.676126797613104
795021.0,2.885847,0.9547703,6.0803795,6.797846283727762
795023.8168736746,-0.14118157,-1.2323477,15.702263,15.75118015929511
795026.1287488639,-5.704693,6.0851655,8.135887,11.6518418571232
795028.4406240534,3.8454032,-0.43311638,6.719286,7.75393576959408
795030.7524992427,3.6659353,-3.7401154,15.123179,16.004314664962827
795033.064374432,-2.5915194,5.4630094,8.726935,10.616959969750743
795035.3762496213,4.5417395,0.5264398,6.396243,7.862344501733137
795037.6881248107,3.594148,-3.3117847,14.81928,15.604386481481995
795040.0,-3.2663195,5.7956233,9.040407,11.224395361765913
795041.8168736746,2.5939124,2.3139422,6.594855,7.454852279880507
795044.1287488639,1.5386399,-2.4024796,14.742706,15.016214608639695
795046.4406240534,-5.568297,5.149538,9.705635,12.317590017811032
795048.7524992427,2.7925239,0.84948236,5.953555,6.63058271572321
795051.064374432,3.1634245,-3.7975452,14.02962,14.874771980021855
795053.3762496213,-5.0633936,5.436687,10.827909,13.131608187757163
795055.6881248107,3.2615337,1.6367491,6.65707,7.591648745660359
795058.0,5.697514,-4.7953877,13.364391,15.299161930458423
795060.8168736746,-2.474267,4.5154176,10.552725,11.741848160119588
795063.1287488639,1.8664683,4.039229,6.0732007,7.528800805694515
795065.4406240534,2.5197322,-2.4790528,13.139459,13.60662103380504
795067.7524992427,-5.546761,4.532168,11.057629,13.17491037817662
795070.064374432,0.5886554,3.5223608,5.6855497,6.7140908674589665
795072.3762496213,3.201711,-3.2974274,12.577125,13.39059573175954
795074.6881248107,-5.391222,4.108623,12.256475,14.005971477731846
795077.0,0.8925547,3.3883579,6.176096,7.100829877711512
795078.8168736746,6.31967,-4.891104,11.840109,14.284582891341175
795081.1287488639,-2.4120514,3.2974274,12.562767,13.210379786773796
795083.4406240534,0.3254355,5.6999073,6.1354165,8.380822580255819
795085.7524992427,4.137338,-2.7470584,11.603211,12.621347039431868
795088.064374432,-3.9530842,2.8595252,12.651305,13.559471865258976
795090.3762496213,-1.7875023,6.147381,5.6185484,8.517836800198092
795092.6881248107,2.450338,-1.8186102,11.088737,11.50093855426404
795095.0,-5.2476473,2.3809435,13.20646,14.40893055944783
795097.8168736746,-2.5843408,5.5084743,5.8171597,8.417924533969714
795100.1287488639,5.228504,-3.4457877,10.002356,11.8007555903096
795102.4406240534,-2.1775463,1.2658484,13.653934,13.884307463348046
795104.7524992427,-1.7348584,6.968148,6.1497736,9.454339508882232
795107.064374432,5.503689,-2.0483294,9.523774,11.188767454134586
795109.3762496213,-0.41875893,0.15314612,13.531896,13.539240086886036
795111.6881248107,-1.6726427,7.4036574,6.511103,10.000316933730003
795114.0,2.6920216,0.13160995,9.705635,10.072916768594414
795115.8168736746,-2.5484471,-0.7681235,14.0966215,14.345707861482921
795118.1287488639,-3.6420062,6.2048106,6.4369226,9.653903681988005
795120.4406240534,3.5534685,-0.5168682,8.841795,9.543145704571868
795122.7524992427,-1.1007377,-1.4668527,14.57281,14.687752436087647
795125.064374432,-3.436216,6.769537,7.760201,10.856101102763644
795127.3762496213,4.922212,-0.33740005,8.473288,9.80503030579855
795129.6881248107,1.2610626,-2.7231295,13.429,13.760223622997158
795132.0,-2.9073834,7.6166263,8.394321,11.701730618993425
795134.8168736746,2.1009734,3.2399976,8.681471,9.50155841950963
795137.1287488639,-0.05025107,-3.0102785,12.761379,13.111715974625113
795139.4406240534,-4.2067323,6.2789907,8.334499,11.25105303674064
795141.7524992427,1.1797037,4.034443,8.758043,9.71451225383404
795144.064374432,-0.023929082,-3.460145,12.581911,13.049048257781537
795146.3762496213,-4.6972785,5.379257,9.253376,11.688703887770759
795148.6881248107,2.9289196,3.7449012,8.559432,9.791155763424948
795151.0,3.567826,-4.4651666,11.332812,12.692506567237835
795152.8168736746,-1.3950654,5.0274997,9.851603,11.147916503696386
795155.1287488639,2.708772,6.6498914,8.889653,11.42735454250838
795157.4406240534,2.6680925,-3.2519622,10.162681,10.9988208843742
795159.7524992427,-2.6944146,4.2306614,9.392164,10.647587075062551
795162.064374432,-0.6748001,8.839402,9.088264,12.695941297369803
795164.3762496213,0.09571633,-1.7731448,10.009535,10.16582485653873
795166.6881248107,-3.823867,2.266084,10.200967,11.127300807645762
795169.0,0.011964541,7.597483,10.011928,12.56823748035954
795171.8168736746,2.9504557,-2.6920216,9.839638,10.619352386260335
795174.1287488639,-0.92605543,1.093559,10.808765,10.9033412663797
795176.4406240534,1.5410328,8.521146,10.3924,13.527257260952489
795178.7524992427,3.5295393,-1.6487137,9.164838,9.958421566747221
795181.064374432,-1.562569,0.54079723,9.827674,9.965804522165417
795183.3762496213,-1.5841051,10.457008,10.770479,15.095086060349274
795185.6881248107,0.70112205,0.95237744,9.880318,9.950843114949667
795188.0,-1.483603,-2.2565124,9.15048,9.540660894474907
795190.8168736746,-0.9834852,8.308177,9.504631,12.662190120516634
795193.1287488639,-0.0071787243,2.940884,10.78723,11.180929357993394
795195.4406240534,-2.0244002,-2.732701,9.664956,10.245839419349547
795197.7524992427,-1.2203832,7.0710435,8.913583,11.442943381474167
795200.064374432,1.9573988,3.441002,11.093522,11.7787153455175
795202.3762496213,0.5072965,-3.7377224,9.822887,10.522215902230053
795204.6881248107,1.4429235,6.1497736,8.545074,10.62638382628753
795207.0,2.9552414,5.7884445,11.263418,13.004004248868045
795208.8168736746,0.62454903,-3.8334389,9.56206,10.32077064634745
795211.1287488639,0.55754757,5.460616,7.238547,9.084368391004292
795213.4406240534,-0.12443122,9.657777,11.631927,15.11918865030689
795215.7524992427,-2.5412683,-2.2924058,9.746315,10.329754353501515
795218.064374432,-1.4883888,3.2711053,6.2048106,7.170432740464546
795220.3762496213,0.107680865,9.262947,11.497924,14.765366185884863
795222.6881248107,-1.6989647,-2.0914016,10.6269045,10.963190272746747
795225.0,-0.34457877,1.8521109,6.6809993,6.941527278721449
795227.8168736746,2.577162,8.686256,11.402207,14.563760906531973
795230.1287488639,1.0265576,-2.2086542,10.851838,11.121796701052372
795232.4406240534,2.0914016,0.70112205,6.6857853,7.040259786341329
795234.7524992427,3.6539707,10.2344675,11.00977,15.469675573130639
795237.064374432,-0.5168682,0.89734054,11.313669,11.360962944330897
795239.3762496213,0.21536173,-0.44747382,6.408208,6.427421198707767
795241.6881248107,2.1249025,9.662563,9.885103,13.985549531001071
795244.0,-2.6752713,2.9839563,12.144009,12.788198712914747
795245.8168736746,-2.3282995,-1.1725249,7.004042,7.473446162285794
795248.1287488639,1.1246668,7.697985,8.825045,11.7645768187076
795250.4406240534,-0.79205257,2.5508401,12.35937,12.644688975467592
795252.7524992427,-0.51926106,-2.1296883,8.049743,8.342875204007202
795255.064374432,3.3428926,7.138045,8.753258,11.779055266519627
795257.3762496213,1.4859959,4.139731,12.301941,13.064582233453116
795259.6881248107,1.1414171,-3.0748868,8.190925,8.823208837186822
795262.0,4.9150333,6.1330233,7.7195215,11.016466735183927
795264.8168736746,0.42833054,7.3510137,12.19426,14.245028831725277
795267.1287488639,-1.9956853,-2.2924058,8.810688,9.320198882097621
795269.4406240534,1.6008555,4.867175,6.295741,8.117172263269165
795271.7524992427,-0.75855184,8.095208,11.911897,14.422242668733611
795274.064374432,-3.0318146,-1.6630712,9.672134,10.271702960025596
795276.3762496213,1.3519931,3.9387267,6.195239,7.464746454291767
795278.6881248107,2.5293038,7.2265825,11.636712,13.929606545518244
795281.0,0.011964541,-2.4790528,10.031071,10.332871398719243
795282.8168736746,3.9650488,3.438609,5.9200544,7.911554078701718
795285.1287488639,3.2902486,9.70085,11.880789,15.687108523715356
795287.4406240534,-1.2132044,-1.0122001,10.423508,10.542577150995072
795289.7524992427,2.5651975,2.3330853,5.888947,6.833975563308033
795292.064374432,2.1464386,10.181824,11.210774,15.29569195262581
795294.3762496213,-3.9530842,0.5025107,10.768086,11.48177110899273
795296.6881248107,-1.0528796,2.2565124,5.747765,6.263960900155342
795299.0,1.7540016,8.978191,11.167702,14.436135327922345
795301.8168736746,-1.4907818,-0.24886245,10.849445,10.954214700390724
795304.1287488639,2.4311945,1.3567789,6.824574,7.370642167531366
795306.4406240534,5.5324035,8.810688,10.830302,15.017694661011065
795308.7524992427,-0.27039862,0.571905,10.14593,10.165632607350263
795311.064374432,0.650871,1.9406484,6.1880603,6.517809413253786
