timestamp,accel_x,accel_y,accel_z,magnitude
6164606.5,-9.633848,-6.1043086,-5.6065836,12.7085557965855
6164643.0,-10.24404,-8.198103,-5.9750915,14.41703737782424
6164679.5,-7.0088277,-6.5493894,-0.6197632,9.612610138000703
6164716.0,-10.0837145,-2.0459363,8.078458,13.081614469129256
6164752.5,-8.1119585,2.9552414,19.203087,21.05459267636316
6164789.0,-10.196181,5.573083,24.831207,27.41551024851624
6164825.5,-5.7621226,3.1490672,15.130358,16.49382958247449
6164862.0,-4.395772,-0.90451926,5.228504,6.890444154458473
6164898.5,2.811667,-3.9770133,-7.970777,9.341059473688993
6164935.0,21.256203,-19.282053,-35.6304,45.75094685393974
6164971.5,21.112629,-9.736743,-29.535666,37.588599782424005
6165008.0,-3.5295393,3.5726118,-14.508202,15.352821500185161
6165044.5,-17.152365,16.987255,9.47113,25.932079766288513
6165081.0,6.0253425,37.549515,45.582508,59.36359039468212
6165117.5,23.95301,32.902485,40.691402,57.55093747247675
6165154.0,-9.408915,15.410328,16.822144,24.67773124299608
6165190.5,-14.034406,5.6400843,-11.6726055,19.105622780809128
6165227.0,45.55858,7.7745585,-37.018288,59.214707783938834
6165263.5,63.88586,-0.61497736,-44.02233,77.58702754792074
6165300.0,-3.2687125,11.23231,-33.68018,35.65394500158652
6165336.5,-35.824226,33.4385,11.160523,50.259981340850146
6165373.0,39.99985,78.36774,64.754486,109.24575108375747
6165409.5,33.594036,35.680653,26.080305,55.51441760631854
6165446.0,-19.016441,24.225801,13.170567,33.495944493319946
6165482.5,-7.099758,8.612076,-26.745533,28.980992946109158
6165519.0,73.289986,-48.12856,-78.36774,117.5979719564134
6165555.5,33.462425,4.936569,-46.905785,57.8295449302397
6165592.0,-26.176022,32.416725,-9.143302,42.657099748263626
6165628.5,4.8647823,73.58671,48.197956,88.10058432285467
6165665.0,61.964355,63.44796,42.32576,98.26848364712475
6165701.5,-15.300254,27.922844,13.747257,34.680975541886085
6165738.0,-8.837009,14.142087,-27.827127,32.44133705407006
6165774.5,78.348595,-61.26802,-78.36774,126.62454456345351
6165811.0,28.662252,12.25169,-40.662685,51.23555941898975
6165847.5,-24.515343,39.492554,0.54797596,46.486171508345386
6165884.0,37.80077,73.20863,59.083294,101.38657381014626
6165920.5,27.865416,46.350628,39.863457,67.18599056974816
6165957.0,-30.588545,20.449793,8.133494,37.682978167972735
6165993.5,26.812534,16.683355,-44.512875,54.576939766927254
6166030.0,77.690544,-10.545546,-64.16104,101.30976370190413
6166066.5,10.011928,27.389227,-37.236042,47.296207900427675
6166103.0,-23.28778,48.43964,-7.025578,54.20404197928494
6166139.5,20.952303,78.36774,49.573875,95.06876856374565
6166176.0,41.47149,55.307285,43.36189,81.60290289728316
6166212.5,-20.490473,35.11114,23.000633,46.70846555244582
6166249.0,-30.925943,19.305983,-23.000633,43.106426996867036
6166285.5,76.501274,-33.45525,-78.36774,114.51288726118635
6166322.0,77.532616,4.3048415,-45.403038,89.95150951358751
6166358.5,-7.7267003,26.190378,-15.83148,31.56380136009134
6166395.0,-30.208073,48.90865,18.784328,60.47672856237689
6166431.5,58.863148,78.36774,60.270176,115.06027542226936
6166468.0,15.556295,38.035275,29.61463,50.65280612650744
6166504.5,-33.42175,25.26911,-2.390515,41.967318894823684
6166541.0,37.90845,41.057518,-39.26762,68.2987287303887
6166577.5,65.46518,19.882673,-58.91579,90.28887411736525
6166614.0,15.092072,31.935751,-25.618475,43.634494273599756
6166650.5,-35.733295,36.1042,-7.7960944,51.392224286274434
6166687.0,-7.8200235,67.26943,52.519547,85.70082728393386
6166723.5,43.471962,51.177124,44.96753,80.81452997661819
6166760.0,-34.64931,24.979568,14.505809,45.110663879920956
6166796.5,-13.381142,15.56826,-24.06787,31.63365370912225
6166833.0,78.348595,14.790565,-60.00935,99.79170926943655
6166869.5,53.744717,32.88095,-27.13797,68.6011726870138
6166906.0,-25.199715,29.856314,-23.65629,45.67324357117547
6166942.5,-34.4842,53.91222,33.36432,72.17246957137326
6166979.0,62.294575,78.36774,66.70232,120.29678399907715
6167015.5,-18.475643,37.42269,23.125063,47.713474510388764
6167052.0,-36.276485,11.318456,-15.206931,40.93093647374712
6167088.5,52.30658,51.349415,-28.061634,78.48691632933848
6167125.0,48.363064,28.020954,-39.38966,68.37912793721351
6167161.5,-7.8463454,29.566772,-26.654604,40.57372372648216
6167198.0,-40.085995,37.21929,-1.7133222,54.72748867073235
6167234.5,15.175823,78.36774,63.139275,101.77610880732547
6167271.0,19.119335,44.299908,28.020954,55.796099171185844
6167307.5,-36.908215,25.053747,10.066964,45.73019065566565
6167344.0,-15.529974,17.46105,-28.85847,37.133268779950896
6167380.5,78.348595,-3.460145,-71.82553,106.34557678472551
6167417.0,41.00966,31.000124,-25.809906,57.523483457278665
6167453.5,-26.64264,27.807985,-14.663741,41.20848936863502
6167490.0,-24.130085,53.18956,22.912094,62.7403725408581
6167526.5,55.49154,78.36774,65.618324,116.30381820408208
6167563.0,-30.746475,35.039352,13.929118,48.65308049613563
6167599.5,-26.829285,17.977919,-21.174843,38.61851992576146
6167636.0,64.598946,18.217209,-56.57792,87.78354948159135
6167672.5,59.64802,26.76707,-44.543983,79.11086365227969
6167709.0,-18.164566,28.044884,-27.262402,43.1243033491721
6167745.5,-41.772995,49.796417,6.511103,65.32274274389069
6167782.0,66.439095,78.36774,71.09808,124.94235869717293
6167818.5,-17.331833,43.23985,13.811866,48.58852442258711
6167855.0,-35.16857,15.762086,-19.557238,43.21755695437839
6167891.5,59.281906,25.721369,-62.409435,89.83802524124305
6167928.0,52.648766,24.807278,-52.25872,78.21935450469046
6167964.5,-16.783857,29.829992,-24.328697,41.99299675224813
6168001.0,-38.217136,46.95125,7.9635983,61.06052946453019
6168037.5,66.900925,78.36774,66.28834,122.52093885748194
6168074.0,-14.33352,50.51668,17.360548,55.306178503609374
6168110.5,-36.948895,22.033897,-14.328733,45.3434234273607
6168147.0,34.563164,33.21835,-46.11373,66.51726976452277
6168183.5,77.39143,12.177509,-59.91842,98.63033112682113
6168220.0,11.294526,35.024994,-34.010403,50.11011908274736
6168256.5,-45.302536,32.356903,-14.194731,57.4524092440436
6168293.0,1.6965718,78.36774,30.878086,84.24866303748416
6168329.5,66.72864,71.22012,30.935516,102.38175149532388
6168366.0,-50.98569,38.047237,10.736979,64.5167849955088
6168402.5,-30.51197,22.304296,-36.08027,52.25177333459044
6168439.0,78.348595,-14.740314,-78.36774,111.79124235824656
6168475.5,57.41783,31.248987,-54.81913,85.31379375219443
6168512.0,-54.012722,46.618637,-23.601252,75.15111808585789
6168548.5,-8.099994,78.36774,28.786684,83.87959079074892
6168585.0,78.348595,78.36774,44.445873,119.39615001294536
6168621.5,-68.903786,33.749577,-4.144517,76.83711794423326
6168658.0,43.424103,15.740549,-78.36774,90.96658879436784
6168694.5,77.34597,16.91786,-78.36774,111.40069898761003
6168731.0,-45.61601,43.637074,-28.844114,69.40459284547796
6168767.5,-1.0217718,78.36774,51.110123,93.56704207889659
6168804.0,22.636911,78.36774,38.80579,90.33173168855792
6168840.5,-63.428814,14.646991,-73.44314,98.14093745150531
6168877.0,78.348595,-36.994358,-78.36774,116.82716950698493
6168913.5,15.687905,44.692345,-63.701607,79.38142603449815
6168950.0,-68.44675,78.36774,12.167937,104.7593382429751
6168986.5,78.348595,78.36774,78.40124,135.7452004481898
6169023.0,-78.40124,55.283356,-15.26436,97.13909908152297
6169059.5,78.348595,35.494007,-78.36774,116.36077321888881
6169096.0,78.348595,24.572773,-78.36774,113.50694332987368
6169132.5,-60.195995,40.421005,-50.49036,88.35548603329423
6169169.0,-8.602505,78.36774,2.5101607,78.87842969863465
6169205.5,60.3635,78.36774,26.788607,102.48358048954988
6169242.0,-78.40124,47.097218,-9.176803,91.91907359290526
6169278.5,22.952774,38.04006,-77.95616,89.72758149557066
6169315.0,78.348595,7.6405554,-78.36774,111.07827464451405
6169351.5,3.2112827,36.932144,-41.2322,55.447181297664315
6169388.0,-71.70349,28.23153,-18.152601,79.17023864676803
6169424.5,64.67791,78.36774,70.533356,123.69191171333085
6169461.0,8.595325,62.876053,21.775463,67.09283450249217
6169497.5,-55.53222,32.957523,-21.933395,68.19897064215819
6169534.0,35.525112,40.382717,-68.020805,86.71578476703453
6169570.5,78.348595,27.422728,-58.19074,101.37391464860973
6169607.0,28.432533,9.523774,-37.3174,47.87169880795087
6169643.5,-36.893856,23.503143,-18.557003,47.51754099034581
6169680.0,-14.060728,70.57883,12.969562,73.12513148385258
6169716.5,78.09495,78.36774,32.110435,115.20157952085259
6169753.0,-25.477293,41.014446,4.6494203,48.50664231237632
6169789.5,-22.421549,19.349054,-41.974,51.37050151842316
6169826.0,78.348595,-20.411507,-78.36774,112.67934428808447
6169862.5,45.759583,42.69666,-31.562458,70.0937441323493
6169899.0,-34.41959,17.035112,-8.097601,39.24887716324946
6169935.5,-22.5053,47.37001,34.9891,63.04477372709097
6169972.0,42.28747,78.1787,53.562855,103.77436431239617
6170008.5,-7.154795,21.63189,7.8750606,24.106976913702752
6170045.0,-14.553667,18.695791,-15.695085,28.41966779221381
6170081.5,78.348595,-9.071514,-78.36774,111.18586860493478
6170118.0,19.463915,22.739805,-18.825008,35.35991579126446
6170154.5,-34.089367,28.348782,9.770244,45.40039703751223
6170191.0,-5.21654,53.701645,71.06698,89.22776816438942
6170227.5,6.43453,13.132279,25.790764,29.648329392369426
6170264.0,11.040878,0.9858781,-18.018599,21.15520863905021
6170300.5,24.831207,-6.1617384,-23.436142,34.69594519581572
6170337.0,3.0748868,1.1557746,5.340971,6.270304217632538
6170373.5,-27.463406,7.7697725,45.211605,53.466786517413006
6170410.0,-6.487174,-0.46661708,31.758677,32.41781489853924
6170446.5,-11.172488,-4.582419,8.549861,14.796052687153624
6170483.0,-3.2519622,-4.2569833,4.766673,7.170658021104948
6170519.5,-36.613888,-34.00801,-59.83945,77.96076779341738
6170556.0,1.7827165,1.5338541,6.5996404,7.006143013725257
6170592.5,-10.722621,-2.1823323,6.6594634,12.809591256289321
6170629.0,-13.586932,-2.1440456,11.229918,17.75704679822147
6170665.5,-14.053549,-20.22486,29.858707,38.7051622555293
6170702.0,-0.5168682,-4.5919905,2.8020954,5.404189867034896
6170738.5,-2.5508401,8.497216,9.155267,12.748661843805921
6170775.0,-0.1483603,16.537388,0.6532639,16.550950618142853
6170811.5,-10.899696,-7.5448394,3.484074,13.70644906975123
6170848.0,-16.156916,-3.4864671,5.2524333,17.343282360654435
6170884.5,-9.638634,1.8090385,8.49961,12.977644463944074
6170921.0,-3.541504,-4.5776334,3.8860826,6.97127076657006
6170957.5,-17.80563,1.7683591,-25.898445,31.478516594996623
6170994.0,-1.2443122,-0.39482984,8.478073,8.577990746494908
6171030.5,-3.5247536,-0.57669085,6.0564504,7.031148677481287
6171067.0,-16.130594,2.9624202,16.35074,23.158555541782047
6171103.5,-8.92794,2.2852273,11.466816,14.711160580801273
6171140.0,1.8808258,-5.128002,4.898283,7.336694524786939
6171176.5,-4.2234826,-3.543897,4.2234826,6.94512897588047
6171213.0,2.060294,-0.45465255,10.768086,10.972839031492876
6171249.5,3.2734983,0.069394335,18.403856,18.692846823385917
6171286.0,-4.1564813,-3.6324344,8.32732,9.990754468505022
6171322.5,-10.368471,-4.9604983,10.514439,15.577713623855871
6171359.0,-3.9219763,-9.241411,3.0126712,10.481496225634588
6171395.5,-25.297825,5.0418572,28.698147,38.587354340371995
6171432.0,-18.138243,22.120043,-22.794842,36.57727413646159
6171468.5,-0.047858164,-2.4479449,14.151658,14.361899205406695
6171505.0,-2.7566302,0.31107804,7.2840123,7.794396371308914
6171541.5,-67.90834,-26.862785,77.96334,106.8243148513831
6171578.0,-5.977484,-0.5336185,9.468738,11.210355167720703
6171614.5,-5.673585,-2.1392598,8.334499,10.30678770641571
6171651.0,1.7324655,1.1797037,22.78527,22.88146993751459
6171687.5,-8.583362,-1.6534995,13.220818,15.849233180462335
6171724.0,-5.6568346,-0.37329367,7.5376606,9.431619859632361
6171760.5,-12.727879,-3.5319324,17.111687,21.616736162121693
6171797.0,9.078693,-1.3496002,32.988632,34.24169868040301
6171833.5,-5.209361,-1.9932925,14.85278,15.865551700060015
6171870.0,-6.2239537,-3.2184613,7.997099,10.632482551838136
6171906.5,-6.276598,-1.3711363,13.493608,14.945004317980162
6171943.0,-7.5352674,-1.1557746,8.61447,11.503267496516282
6171979.5,-14.948497,-0.90451926,17.128437,22.752122356248197
6172016.0,-14.362234,-4.505846,-2.835596,15.317213138220936
6172052.5,-4.505846,-0.6389065,11.045664,11.946444780450554
6172089.0,-2.4670882,-1.691786,9.597955,10.053328018044585
6172125.5,-9.731957,3.1371026,13.340463,16.808341763158694
6172162.0,-6.2383113,-1.5194967,9.846817,11.75522025010623
6172198.5,-8.671899,0.34457877,23.65629,25.19802816410514
6172235.0,-13.311748,3.986585,20.724977,24.952357933234644
6172271.5,-2.4168372,0.34936458,16.257418,16.4397931157234
6172308.0,-1.0122001,-3.4577522,13.467287,13.94089016022341
6172344.5,-7.6118407,-4.4220943,1.9621847,9.019157701092883
6172381.0,-4.479524,-0.8997334,13.0916,13.86598882220996
6172417.5,-7.004042,-1.040915,7.4084435,10.248177568118209
6172454.0,-9.270126,-1.9119335,16.235882,18.79347200711519
6172490.5,-3.3357139,0.30150643,14.81928,15.19305608060421
6172527.0,-0.61497736,-2.5843408,13.299783,13.562493958374551
6172563.5,-20.677118,17.571125,8.4541445,28.421122458101987
6172600.0,-6.590069,-1.6152129,14.553667,16.057619539769163
6172636.5,-6.716893,-1.639142,7.1954746,9.978892362825553
6172673.0,-7.348621,7.1906886,56.525276,57.452720214276944
6172709.5,-1.7755378,1.9908996,17.16433,17.370389749381243
6172746.0,-1.0911661,-2.28762,12.62259,12.87453405099731
6172782.5,0.5168682,-3.7329366,27.092505,27.353350719259527
6172819.0,-3.802331,0.66044265,13.783151,14.313251098765123
6172855.5,-7.1954746,0.27997026,5.90809,9.314438550649717
6172892.0,2.6202343,13.328498,11.581676,17.850762047931635
6172928.5,0.38765112,2.5891266,16.58046,16.78587214753123
6172965.0,-1.4620669,-2.010043,11.282561,11.553098943601478
6173001.5,-33.038883,7.6190195,-43.634678,55.25940980677185
6173038.0,-6.1330233,-0.045465253,14.0463705,15.326988161763664
6173074.5,-5.185432,1.2108115,10.114822,11.430852706899877
6173111.0,12.761379,-42.026646,-33.74479,55.387747924383575
6173147.5,-1.3352427,0.4498667,17.57591,17.632296091087294
6173184.0,-3.2639267,-1.0887731,10.177038,10.742939393839123
6173220.5,-38.884758,-4.587205,11.380671,40.774827122145226
6173257.0,-5.9726987,-2.9911351,15.589796,16.960594278180515
6173293.5,-6.396243,-0.28236315,7.757808,10.058590280371844
6173330.0,3.0054924,-0.4498667,13.912368,14.240412493381315
6173366.5,0.15075321,-0.12682413,16.482351,16.483528304870795
6173403.0,-5.061001,-2.443159,7.6764493,9.513707525289627
6173439.5,-15.372042,-0.8040171,9.999963,18.35607198580964
6173476.0,-5.503689,-0.110073775,14.189945,15.220290665676814
6173512.5,-11.318456,-1.6511066,-4.7044573,12.367922934592649
6173549.0,-7.934883,0.55754757,13.33807,15.529885345404258
6173585.5,-0.14357449,0.6269419,11.189239,11.207708917494038
6173622.0,-6.094737,-2.6896286,12.155973,13.861731518170302
6173658.5,-5.2476473,-2.9360983,6.707321,9.008142450555562
6173695.0,-4.716422,0.90691215,11.378278,12.350398227392736
6173731.5,-1.0528796,4.120588,6.9370403,8.136972965523741
6173768.0,-4.3120203,4.338342,6.6786065,9.056407409034685
6173804.5,-1.87604,-1.639142,15.077714,15.282138987836749
6173841.0,-2.0890088,1.170132,16.183237,16.359410944837542
6173877.5,-6.276598,-1.2730271,9.507024,11.462974561060248
6173914.0,-5.8721967,2.239762,13.771186,15.137529248418675
6173950.5,-7.3821216,3.3740003,12.077007,14.55107196805911
6173987.0,-4.905462,4.972463,16.747963,18.146162414383433
6174023.5,-1.1725249,-1.6176059,-0.36372203,2.0307036228711812
6174060.0,-6.0827723,7.3893003,14.548882,17.41470198502264
6174096.5,-3.6946502,0.99784267,13.747257,14.270010690902854
6174133.0,-5.329006,0.45225963,8.049743,9.66442994113014
6174169.5,-10.375649,0.9451987,7.243333,12.689104211983274
6174206.0,-7.449123,0.60301286,12.184688,14.294043501955574
6174242.5,-7.8200235,3.1299238,11.660641,14.384705039215774
6174279.0,-9.200731,-0.5647263,-0.89734054,9.261619014675574
6174315.5,-2.3665862,-1.4883888,33.574894,33.69108989886246
6174352.0,-3.2160685,1.4859959,11.177274,11.72530317231009
6174388.5,-4.036836,2.5340896,9.124159,10.294072685240044
6174425.0,-8.882475,2.6944146,-2.3570144,9.57672955889042
6174461.5,-6.456066,1.2538838,13.639576,15.142359335322697
6174498.0,8.832224,-4.8025665,14.977212,18.03856161300125
6174534.5,-8.023421,1.4237803,1.8736471,8.361398707228805
6174571.0,-1.5984626,3.936334,-25.04657,25.40433972391439
6174607.5,-5.2955055,1.6822144,10.799194,12.144744329862757
6174644.0,2.4264088,8.147852,-34.259266,35.29833223733633
6174680.5,-9.229446,1.0313433,15.723799,18.261549700443606
6174717.0,-4.405344,2.4551237,13.175352,14.107607467765103
6174753.5,-4.682921,3.6037195,13.5031805,14.7394853011393
6174790.0,-3.3404996,4.1229806,2.5508401,5.887672869763106
6174826.5,-0.31107804,2.5125535,37.963486,38.047811552171154
6174863.0,-4.2091255,1.3448143,12.749414,13.493436193928911
6174899.5,0.8829831,3.5008245,18.64554,18.991882298136904
6174936.0,-2.08183,2.2756555,6.269419,6.987004987914439
6174972.5,-1.4046371,3.9004402,7.918133,8.937744085738943
6175009.0,6.901147,12.825988,4.307235,15.188287310851674
6175045.5,-1.9286839,2.390515,12.579518,12.949079375139695
6175082.0,-0.040679436,2.7709875,14.888674,15.144393022499962
6175118.5,-5.2500405,-2.1272953,6.0540576,8.290954346102751
6175155.0,-4.4125223,3.5797906,5.0705724,7.615507747451079
6175191.5,-5.5898333,2.268477,11.21556,12.735030833685402
6175228.0,-0.96194905,1.9741492,8.298605,8.584256286055394
6175264.5,-3.697043,2.3043704,10.997806,11.829200594202517
6175301.0,-13.539074,8.57379,-3.2304258,16.34784544185813
6175337.5,-5.0849295,2.7255223,8.61447,10.367934857466436
6175374.0,-2.3450499,0.56711924,10.296683,10.575564479892181
6175410.5,-11.050449,4.0918727,6.125845,13.280881832869055
6175447.0,-4.5776334,2.5149465,11.33042,12.4763015681354
6175483.5,-5.5132604,3.823867,8.633613,10.934224824177806
6175520.0,-5.2500405,20.588581,31.33513,37.8595161744323
6175556.5,-3.5726118,3.4529665,13.153816,14.060917754025784
6175593.0,-6.9346476,10.579046,12.189474,17.56669655919911
6175629.5,-5.2955055,-1.1892753,16.867609,17.719282931783706
6175666.0,-3.9004402,3.4792883,7.386907,9.049048339739485
6175702.5,-10.55751,5.8386955,12.79488,17.5857992925036
6175739.0,5.2452545,-6.1114874,13.493608,15.714338352848108
6175775.5,23.766363,33.060417,1.9885067,40.765001427175285
6175812.0,-8.119137,4.3838077,7.602269,11.955444346560663
6175848.5,-3.9195836,1.3472073,12.888203,13.538237687223964
6175885.0,-8.334499,1.4644598,4.3335567,9.507272466850411
6175921.5,-8.954262,2.706379,8.626433,12.72472559860424
6175958.0,-6.1378093,4.1612673,7.779344,10.74742023071359
6175994.5,-9.296448,5.8626246,13.225603,17.196246315136282
6176031.0,19.052334,20.112392,11.438101,29.972152029766246
6176067.5,-4.268948,2.603484,9.6410265,10.860545011124547
6176104.0,-4.3407354,2.1153307,12.991098,13.859481773456741
6176140.5,-15.352899,14.4483795,1.6606783,21.147695626150668
6176177.0,-8.89444,4.7212076,9.538132,13.869997338331459
6176213.5,-4.687707,2.7231295,10.167466,11.522473521461233
6176250.0,-6.3938503,5.4510446,8.77958,12.152211069035923
6176286.5,4.020086,27.760126,43.570072,51.81830623504069
6176323.0,-1.665464,0.009571632,13.242353,13.346676549914745
6176359.5,-28.28178,-1.9717562,-1.0624512,28.370331422685567
6176396.0,-7.7219143,2.9193478,8.777187,12.049463210735917
6176432.5,-1.8664683,3.2399976,12.974348,13.502406984979185
6176469.0,-3.926762,4.924605,3.8908687,7.403381217478179
6176505.5,-7.4874096,12.067435,40.569363,42.983223520615184
6176542.0,-3.649185,1.7875023,13.431393,14.032606085726888
6176578.5,-13.948261,-0.7657306,-3.3213565,14.35868159950591
6176615.0,-1.5147108,0.24407662,11.026521,11.132748428286174
6176651.5,-3.8812969,3.9387267,8.566611,10.19631588705271
6176688.0,-7.8630958,6.4464946,10.272755,14.453894405240124
6176724.5,10.023892,12.900167,24.187515,29.187815973977532
6176761.0,-4.8599963,1.040915,11.457244,12.488855357829022
6176797.5,-5.43908,0.12443122,7.3007627,9.104955264943479
6176834.0,-7.1212945,2.68245,14.929354,16.756908551864402
6176870.5,-10.354114,2.1703677,4.326378,11.429598386517492
6176907.0,-4.9628916,3.2399976,8.59054,10.436726257450482
6176943.5,-3.6276486,0.09810923,9.595561,10.25886205633033
6176980.0,-6.9633627,3.3500714,8.48286,11.474768505571225
6177016.5,-3.0246358,3.7090075,10.337363,11.391498239979976
6177053.0,-2.3594074,-2.1464386,8.557039,9.132191324663852
6177089.5,-0.95955616,11.23949,-8.025814,13.844153056322728
6177126.0,-2.4910173,3.4027152,11.196417,11.964254743154683
6177162.5,-3.936334,4.338342,12.49098,13.796395109916213
6177199.0,-6.247883,3.1155663,16.793428,18.18686392269345
6177235.5,-5.0131426,4.1014442,9.368236,11.389349806083946
6177272.0,-3.2998202,2.443159,10.437865,11.216365944896504
6177308.5,-17.915703,6.2550616,18.518715,26.514920608126072
6177345.0,-6.692964,4.2569833,9.459166,12.344776034312282
6177381.5,-3.7137933,4.450809,10.882946,12.330469377461748
6177418.0,0.45943835,-10.882946,-50.330036,51.495263092809445
6177454.5,-4.6230984,4.094266,9.217482,11.09495503889775
6177491.0,-3.3357139,2.3665862,9.4137,10.263793896736413
6177527.5,-6.793466,3.82626,5.0155354,9.270762710230974
6177564.0,-5.853053,2.3833365,7.8942037,10.112219061617235
6177600.5,-0.94280577,7.518517,15.307433,17.080236697678497
6177637.0,-3.2734983,3.1825678,1.9693633,4.972214871572489
6177673.5,-4.8097453,11.732429,7.5376606,14.751266637536773
6177710.0,-2.785345,2.3282995,10.476151,11.087329033880353
6177746.5,-3.5008245,2.263691,9.6003475,10.466457912973112
6177783.0,-2.0698655,3.0318146,12.275619,12.8127695987255
6177819.5,-10.521617,3.0270288,-0.72983694,10.972692906014778
6177856.0,-5.185432,4.2521977,14.280875,15.776985804396677
6177892.5,-3.9171906,4.6733494,7.394086,9.584210170202066
6177929.0,-11.830538,0.78487384,10.43308,15.793252185682352
6177965.5,-4.5776334,1.1342385,8.502003,9.72241119947551
6178002.0,-12.144009,2.5723763,13.921939,18.652465251022548
6178038.5,-5.34815,2.9624202,11.954968,13.427579891584783
6178075.0,-3.7544727,4.0966587,11.258633,12.555297479073126
6178111.5,-4.6757426,2.656128,7.8439527,9.510267019052412
6178148.0,-4.812138,3.8119025,11.619962,13.14194771264877
6178184.5,-4.4364514,2.3211207,9.210303,10.483290689489605
6178221.0,-8.269891,4.2617693,-7.903775,12.20751547076343
6178257.5,-5.494117,3.3644288,8.872903,10.965085973551117
6178294.0,-2.9025974,4.635063,12.237332,13.403774660843853
6178330.5,-7.9061685,1.1605604,1.2347406,8.085727248784043
6178367.0,-5.491724,8.497216,14.060728,17.322406995934948
6178403.5,-4.192375,1.6487137,11.308884,12.173131163782337
6178440.0,4.1564813,-1.222776,5.3266134,6.866172751721679
6178476.5,-4.8887115,3.7616515,9.719993,11.512071319173344
6178513.0,-1.6463208,7.815238,13.120315,15.360045015311044
6178549.5,-26.020483,-36.185555,-57.618835,72.84497287368936
6178586.0,-2.5915194,4.115802,14.759458,15.540186593395344
6178622.5,-6.0492716,4.0176926,8.403893,11.106797840696945
6178659.0,-5.503689,1.8018597,11.55296,12.923164308667019
6178695.5,-6.7288575,3.2447834,9.219875,11.86643322923307
6178732.0,-3.9602628,3.0366004,8.932726,10.23221467842715
6178768.5,-58.377384,-10.71305,50.241497,77.76179282775678
6178805.0,-6.7862873,3.2352118,12.239725,14.364231924632293
6178841.5,-8.0114565,4.2569833,10.760908,14.074888385075567
6178878.0,-7.075829,5.305077,3.4003224,9.4748820803803
6178914.5,-5.9679127,3.2328188,9.782208,11.90624595511611
6178951.0,-2.6369848,2.0746512,8.636005,9.264904143978907
6178987.5,-8.183745,1.6176059,15.745336,17.818696271771284
6179024.0,-7.518517,2.1296883,13.376356,15.491629029033128
6179060.5,-5.5371895,1.7061435,12.392871,13.680447537421555
6179097.0,8.906404,13.474465,-8.628826,18.31234221462992
6179133.5,-2.4981961,0.36850783,9.329948,9.665645941039353
6179170.0,-4.76428,4.268948,10.875768,12.617630939876472
6179206.5,-14.000905,4.400558,8.415857,16.9179461098219
6179243.0,-5.329006,3.1083877,9.636241,11.441919404174646
6179279.5,-4.812138,1.4022441,2.6872358,5.687195872469178
6179316.0,-2.8690968,1.8545038,8.49961,9.160473292580722
6179352.5,-22.47898,11.665427,10.241647,27.318090383578024
6179389.0,-8.329713,0.17707519,22.23251,23.742366671951274
6179425.5,-4.326378,3.5032175,9.401736,10.92623994175884
6179462.0,-2.9911351,2.5460541,8.602505,9.456869087684561
6179498.5,-2.6920216,2.8930259,10.387614,11.113914871274359
6179535.0,-5.180646,3.048565,1.7779307,6.268482999142894
6179571.5,-2.8810613,2.3546216,8.365606,9.155769811478455
6179608.0,-3.2471762,0.75855184,5.4319015,6.373782869969457
6179644.5,-3.670721,1.5003533,9.040407,9.87188996141625
6179681.0,-4.2593765,1.6319634,7.547232,8.818520486426044
6179717.5,-2.184725,-0.6389065,9.796566,10.057531020768629
6179754.0,-6.1856675,3.3716075,4.0559793,8.129033622555697
6179790.5,-2.5628045,0.09332342,9.473523,9.814495106599715
6179827.0,-2.5843408,1.4979604,9.710421,10.159477286147837
6179863.5,-2.6944146,1.4501023,9.0069065,9.512467157204838
6179900.0,-2.2756555,0.22493336,8.815474,9.107238045411854
6179936.5,-3.5821834,1.6893932,8.659934,9.522633258705167
6179973.0,0.81119585,-0.832732,10.5766535,10.640351523795795
6180009.5,-2.8068812,4.6709566,9.301233,10.780044199829888
6180046.0,-1.5266753,-1.1773108,3.565433,4.053283936379948
6180082.5,-2.9265265,2.474267,6.331635,7.401091562446465
6180119.0,-2.7877378,1.1055236,13.414642,13.745773330732243
6180155.5,-3.852582,1.7851094,11.55296,12.30852909158086
6180192.0,-3.8980472,2.2254045,6.6786065,8.046799484508753
6180228.5,2.0555081,-2.938491,8.741293,9.448282712646549
6180265.0,-4.893497,2.8403819,12.050685,13.312891917088548
6180301.5,-3.9004402,2.392908,9.085872,10.17312697505659
6180338.0,-0.37568656,11.208382,15.4749365,19.11132196181941
6180374.5,-5.3768644,3.1610315,5.1926107,8.115786887402484
6180411.0,0.6939433,2.2517266,-8.0306,8.369131755729649
6180447.5,-10.004748,3.4553592,-5.1160374,11.756203827032236
6180484.0,-5.022714,5.154324,10.031071,12.345731943866795
6180520.5,-6.2670264,6.764751,7.099758,11.638042775693084
6180557.0,-4.6709566,0.8279462,9.05955,10.226376517206766
6180593.5,-2.392908,-1.1581675,11.21556,11.526324078739078
6180630.0,4.718815,11.801823,-8.547467,15.31696553641233
6180666.5,-0.8638398,-0.6006199,7.0136137,7.092090002049306
6180703.0,-5.1926107,4.0535865,10.057393,12.02272528801959
6180739.5,1.251491,2.3043704,-24.139656,24.281666838621543
6180776.0,-3.8358316,3.5989337,15.192574,16.077320441728787
6180812.5,-4.264162,0.7657306,8.2124605,9.285145576569095
6180849.0,-4.245019,0.31825677,6.9705415,8.167614246843081
6180885.5,-5.778873,-0.19143265,8.317748,10.130002537073672
6180922.0,0.07418015,-1.0193789,8.222033,8.285316088690173
6180958.5,-6.0061994,4.1804104,12.974348,14.895770150284024
6180995.0,-5.7621226,6.345992,-8.863332,12.330138906910934
6181031.5,5.934412,-3.4864671,18.054491,19.321939444429677
6181068.0,-5.7884445,3.3213565,9.490273,11.601843833813723
6181104.5,-1.0744157,2.7542372,8.597719,9.091807501989432
6181141.0,-1.040915,0.86623275,10.428293,10.515852704761825
6181177.5,-5.8434815,0.74658734,5.1878247,7.849662019158571
6181214.0,-5.7358007,5.1638956,6.147381,9.866890117812241
6181250.5,-6.43453,4.245019,10.473759,13.004729532802363
6181287.0,-16.927431,6.2095966,15.199752,23.582397483207608
6181323.5,-2.1225095,1.8042527,15.053784,15.309369258780832
6181360.0,13.668291,26.96329,1.1629534,30.252167642920277
6181396.5,-4.9604983,2.445552,12.069828,13.276596548761692
6181433.0,-1.0241647,-1.251491,12.050685,12.158706840163228
6181469.5,-4.012907,3.098816,13.290212,14.224479540477008
6181506.0,-6.781502,0.6293348,2.7997024,7.363638040741872
6181542.5,-3.328535,0.31107804,8.451752,9.088895788966846
6181579.0,-3.5080032,-0.7968384,8.248354,8.998687770794184
6181615.5,-3.0030997,-0.15075321,16.798214,17.065208112656038
6181652.0,-3.275891,3.464931,13.340463,14.167044918860496
6181688.5,-5.4582233,3.328535,5.807588,8.637095878629106
6181725.0,-3.5008245,-6.9466124,22.99106,24.271383066056085
6181761.5,-2.0411506,1.4620669,10.550332,10.844973061385629
6181798.0,-2.1560102,1.8449322,10.981055,11.341768985397554
6181834.5,-7.496981,3.5271466,5.9176617,10.181562122184369
6181871.0,-4.462774,2.835596,6.1330233,8.097587989558056
6181907.5,-7.1715455,7.9277043,13.854938,17.4996819202708
6181944.0,-3.4673238,2.1895108,10.215324,11.007685329002602
6181980.5,-0.071787246,2.6704855,12.976741,13.248866109802739
6182017.0,-3.2112827,2.1225095,8.935119,9.72901509409203
6182053.5,-1.1557746,1.6750357,7.2457256,7.526094537857933
6182090.0,3.4768956,4.505846,14.02962,15.14006897386585
6182126.5,3.3859649,-2.1272953,24.55363,24.877115784880168
6182163.0,-4.6661706,4.5656686,12.397656,14.011436476238485
6182199.5,-2.3474429,2.2589052,12.199045,12.626552965214712
6182236.0,-4.529775,0.8231604,5.6616206,7.29728733250223
6182272.5,-7.2194037,6.439316,12.529266,15.82931100301544
6182309.0,-2.9049904,2.165582,12.376121,12.895622731355674
6182345.5,5.697514,2.2828343,23.754398,24.534555683033197
6182382.0,-3.8645465,4.948534,10.047821,11.848266339336707
6182418.5,-4.2785196,-2.6250203,9.964069,11.157021671564381
6182455.0,-7.1284733,4.36945,5.592226,10.058837732381852
6182491.5,-3.5080032,1.7540016,12.668056,13.261306530019914
6182528.0,-2.2493336,2.2469406,10.825516,11.282731955083987
6182564.5,-4.3885937,1.5147108,13.084421,13.883665811901313
6182601.0,17.776915,45.079994,-29.94485,56.964187060641535
6182637.5,-3.1993182,2.5508401,12.431157,13.087249005015082
6182674.0,-1.4046371,2.658521,15.809944,16.093323726728215
6182710.5,-1.8018597,3.433823,9.715207,10.460549021282874
6182747.0,0.7394086,1.6415349,8.717364,8.901336810511552
6182783.5,8.348856,-2.5388756,-0.8901618,8.771640317021133
6182820.0,-2.1368668,2.2828343,16.125807,16.42617373472738
6182856.5,-1.1462029,0.6197632,13.515145,13.57781395818442
6182893.0,-3.177782,1.9430413,8.545074,9.321587718758305
6182929.5,11.0791645,20.399542,-76.75492,80.18857115595853
6182966.0,-3.8358316,3.7784019,-9.294055,10.741014073378135
6183002.5,2.7733805,2.0674727,23.807043,24.05704427328666
6183039.0,-3.256748,4.8264956,11.87361,13.224374531312373
6183075.5,-3.0605295,2.1727605,6.3100986,7.342007447044198
6183112.0,-4.6709566,7.5161242,9.0978365,12.691752736704313
6183148.5,-7.994706,4.919819,22.172686,24.07795563318848
6183185.0,-7.0183992,3.7568657,11.68457,14.138640079699927
6183221.5,-6.64032,2.110545,2.1272953,7.285165419729815
6183258.0,-0.6389065,1.0480938,9.516596,9.59543128559403
6183294.5,4.2569833,-2.9073834,2.2947989,5.642772992289842
6183331.0,-2.995921,-0.30868515,-12.756593,13.107306898357134
6183367.5,-4.83846,3.541504,15.77405,16.8752362696383
6183404.0,-4.6446347,2.6656997,9.485488,10.892798950920199
6183440.5,-14.094229,-15.649619,66.120834,69.39396627088813
6183477.0,-2.3833365,2.9360983,9.258162,10.000726459499788
6183513.5,1.3615648,4.536954,9.239018,10.382546118705132
6183550.0,-3.125138,5.005964,11.739607,13.139426760813768
6183586.5,-1.2754201,0.70112205,10.157895,10.261632394093311
6183623.0,-10.784837,-3.0246358,36.901035,38.563551637659565
6183659.5,-17.248081,7.2696548,15.470151,24.283116584502185
6183696.0,-5.8745894,2.833203,13.866902,15.32412512789573
6183732.5,-1.6965718,3.8884757,4.1804104,5.956041492004055
6183769.0,-3.390751,3.1849606,9.588383,10.657309928975621
6183805.5,3.7257578,-0.8638398,2.0028641,4.317285604102848
6183842.0,-5.723836,6.5804973,13.57736,16.137222432618426
6183878.5,-6.7336435,3.3859649,15.460579,17.199890002682146
6183915.0,-1.1581675,1.6032485,13.015027,13.164447786426042
6183951.5,-1.8114314,2.5867336,8.47568,9.044867378611746
6183988.0,-12.050685,8.159817,6.482388,15.931822765310253
6184024.5,-4.7547083,5.123216,13.646755,15.332596493443956
6184061.0,-7.10933,2.132081,9.796566,12.290689477479162
6184097.5,-4.929391,3.7066147,8.815474,10.758739238861265
6184134.0,-1.0433079,2.6178415,11.361527,11.70580545135847
6184170.5,-3.412287,0.17228939,-41.665318,41.80516846330606
6184207.0,-5.876982,4.785816,13.565396,15.53907722006027
6184243.5,-4.4867024,6.5302463,1.3137065,8.031216591088283
6184280.0,-1.0696299,1.6439278,9.11698,9.32555258711176
6184316.5,4.2474117,3.1801748,-44.881386,45.19394679809286
6184353.0,-2.421623,6.2789907,8.832224,11.103970593935824
6184389.5,-1.9502201,5.278755,9.2988405,10.869086780079975
6184426.0,-5.0945015,3.6061125,5.123216,8.074982048203854
6184462.5,-1.0385221,2.8236315,10.870981,11.279612178720582
6184499.0,-3.22564,5.5515466,6.65707,9.248837983577804
6184535.5,-4.50106,6.5709257,11.725249,14.174557128549784
6184572.0,-3.7257578,4.0248713,12.727879,13.859284397271942
6184608.5,-4.307235,3.390751,8.303391,9.949661692143458
6184645.0,2.0961876,3.4721096,4.998785,6.437188750147918
6184681.5,-4.8815327,0.55036885,19.619453,20.22511318612157
6184718.0,-3.7137933,2.3618002,16.69532,17.26569056719843
6184754.5,-6.369921,2.4000869,6.5254602,9.429631037086056
6184791.0,-4.0751224,1.0792016,21.217916,21.63264334406409
6184827.5,5.494117,-6.817395,-19.002083,20.922269344758064
6184864.0,0.8351249,4.402951,16.511066,17.10843977583453
6184900.5,1.742037,7.42998,-10.59819,13.05989766368286
6184937.0,-2.0339718,2.3809435,7.5879116,8.208674416908131
6184973.5,-1.5529974,6.870039,4.4388447,8.325417650583415
6185010.0,-3.1682103,6.31967,15.663977,17.18534145341474
6185046.5,-4.773852,3.8501892,11.837716,13.332109356375556
6185083.0,-4.192375,3.720972,6.334028,8.458223895723794
6185119.5,6.0803795,6.144988,10.547939,13.6378484201829
6185156.0,-0.12443122,-6.424958,19.4017,20.43823699148913
6185192.5,-1.718108,4.5776334,14.804922,15.591418731807043
6185229.0,-2.0890088,3.5175748,-3.670721,5.496497330110648
6185265.5,-0.09332342,2.0339718,11.545781,11.723941719570117
6185302.0,-2.938491,11.452458,4.012907,12.4858698611468
6185338.5,-2.785345,6.4488873,18.576145,19.859996405794018
6185375.0,-0.86862564,4.955713,10.361292,11.518245254816309
6185411.5,-3.7831876,2.9025974,3.5367181,5.936830383474681
6185448.0,-6.164131,-0.8279462,15.529974,16.729079422847253
6185484.5,6.5158887,5.723836,28.415783,29.709860780703313
6185521.0,-2.4288018,5.022714,13.744864,14.83401565618613
6185557.5,-2.2756555,2.967206,7.7937016,8.644345205448404
6185594.0,12.127258,23.194458,-65.29289,70.34354805569895
6185630.5,0.3804724,16.025305,44.802418,47.5837348075675
6185667.0,-2.553233,6.070808,15.829087,17.1444948534135
6185703.5,-1.1988469,1.3567789,5.704693,5.985115295244847
6185740.0,-0.72983694,-0.12682413,11.818573,11.841765665443132
6185776.5,0.7872668,4.4220943,3.1490672,5.485556602806188
6185813.0,-6.6522846,4.929391,7.946848,11.476244122768657
6185849.5,-2.5197322,4.78103,8.822652,10.346327200205918
6185886.0,-0.416366,1.2802058,9.574025,9.66820780894446
6185922.5,-7.5711613,-6.798252,38.126205,39.46069210477873
6185959.0,-6.4536734,6.3723145,19.643383,21.63605297011141
6185995.5,-1.8449322,8.439787,11.962148,14.755567227384715
6186032.0,-3.4505734,2.680057,6.5709257,7.8908951879338165
6186068.5,1.536247,3.4242516,2.8475606,4.711067313866776
6186105.0,16.278954,-38.8369,-31.016874,52.30062731627597
6186141.5,-0.6939433,7.585519,14.335913,16.23391688245769
6186178.0,-6.5781045,4.268948,1.8903974,8.066534458461764
6186214.5,-2.811667,2.0148287,17.965954,18.295915094341378
6186251.0,-3.6324344,9.719993,8.181353,13.21390860044678
6186287.5,-1.8640754,8.5642185,9.401736,12.853530854450984
6186324.0,1.5817122,1.902362,0.9834852,2.6623369060454913
6186360.5,-2.371372,10.162681,-6.8078237,12.45993394045196
6186397.0,-0.0598227,4.3598785,9.643419,10.583366633532004
6186433.5,0.009571632,-2.6537352,19.033192,19.217304697504336
6186470.0,-3.2495692,7.8487387,9.475916,12.726169227443203
6186506.5,-3.6898644,0.9786994,7.7243075,8.616140560628288
6186543.0,-7.7745585,5.829124,-6.1856675,11.518894430363293
6186579.5,-3.1299238,7.4347653,8.128709,11.451989699024862
6186616.0,3.646792,5.5371895,12.35937,14.025462068932855
6186652.5,-4.788209,7.970777,4.300056,10.24454552503653
6186689.0,-3.4003224,4.682921,9.05955,10.750227333348944
6186725.5,2.2014754,4.5225964,2.4407663,5.590859707175079
6186762.0,-3.8717253,5.984663,16.458422,17.935609907452633
6186798.5,-5.55394,3.905226,6.511103,9.406992181950882
6186835.0,-2.5986981,3.723365,10.019106,10.999961989816356
6186871.5,-8.042564,1.5936768,17.267225,19.114907811380604
6186908.0,-1.5434257,6.6474986,1.9215052,7.089681428812544
6186944.5,-3.543897,7.8702745,14.706813,17.052588521069996
6186981.0,-1.9861137,6.2335258,8.396714,10.644543086783449
6187017.5,-2.1536174,1.1031306,10.339756,10.619111034628798
6187054.0,13.689827,12.852309,-46.683243,50.31817153790924
6187090.5,1.0433079,6.893968,24.905388,25.86297812684708
6187127.0,-4.5393467,7.3079414,9.679314,12.949934188220064
6187163.5,1.3519931,7.992313,-4.5417395,9.291520334061422
6187200.0,-2.2828343,5.278755,8.832224,10.539675876299873
6187236.5,-2.6896286,3.699436,8.217246,9.404417076488576
6187273.0,-6.7527866,14.579989,13.283032,20.84742538584284
6187309.5,-2.9576344,6.3100986,10.973877,12.999650841346252
6187346.0,6.439316,9.332341,-0.014357449,11.33832373962213
6187382.5,-3.01985,5.5563326,9.487881,11.402289763660795
6187419.0,-1.1318455,3.0605295,9.095444,9.663074904675867
6187455.5,-4.819317,11.593639,12.892989,17.9963175945228
6187492.0,-4.7523155,7.374943,9.619491,13.01955813243561
6187528.5,-2.237369,7.585519,8.774794,11.812828970401544
6187565.0,-4.321592,2.7015932,7.1260805,8.761037982181705
6187601.5,-3.3548572,5.343364,8.257926,10.392302319041908
6187638.0,7.9013824,12.139223,-25.462934,29.294258597259546
6187674.5,-1.1055236,7.7243075,10.454616,13.045539639745424
6187711.0,-2.41923,7.549625,9.923389,12.701305471440563
6187747.5,2.5364826,4.785816,-5.7381935,7.890794852826996
6187784.0,-0.25364825,5.6424775,9.944926,11.436933282930802
6187820.5,-1.4812101,6.4369226,5.029893,8.30227556216859
6187857.0,-2.2589052,9.131337,7.4132295,11.976641421109104
6187893.5,-3.2830698,6.953791,9.669742,12.354661748907455
6187930.0,-1.0480938,7.942062,4.376629,9.128511972336096
6187966.5,-0.46661708,1.3567789,12.522088,12.604017945186246
6188003.0,-0.002392908,2.4934103,7.386907,7.796377086621951
6188039.5,2.4120514,6.5302463,21.294489,22.403512458229102
6188076.0,-2.4886243,7.8248096,9.753493,12.749569478372658
6188112.5,-2.4934103,5.0825367,10.394793,11.836426645902975
6188149.0,0.6484781,10.368471,2.6441634,10.71994938467156
6188185.5,-0.30868515,6.300527,8.368,10.479281988741382
6188222.0,1.1605604,5.5826545,3.6085055,6.747906612568721
6188258.5,-4.8719606,8.210068,12.603447,15.811011761882455
6188295.0,-2.7255223,5.977484,10.665192,12.526176877839355
6188331.5,-4.812138,5.460616,4.529775,8.572856045748406
6188368.0,-0.51208234,3.2328188,9.798959,10.331163690516878
6188404.5,-16.747963,3.3237493,15.077714,22.778916425598815
6188441.0,0.15314612,6.221561,19.463915,20.434658356283254
6188477.5,-2.234976,7.97317,8.059315,11.555047201924404
6188514.0,-3.6276486,7.1787243,8.60729,11.78046510476528
6188550.5,-1.5721406,2.7925239,7.9253116,8.548706320568868
6188587.0,-1.2012398,-4.7762446,-0.43790218,4.944415825492628
6188623.5,-3.95787,7.729093,16.771893,18.886503338177715
6188660.0,-2.7039862,7.2696548,8.320142,11.374716927515932
6188696.5,-1.1605604,6.613998,7.274441,9.899967770075474
6188733.0,-3.1849606,11.318456,4.300056,12.519660612437717
6188769.5,-1.8281817,3.3381069,9.624276,10.34948764568655
6188806.0,2.0770442,4.7475295,17.441908,18.19541985342982
6188842.5,-2.7159507,9.69367,7.2816195,12.424395712327852
6188879.0,-3.275891,7.6620917,11.095915,13.876542824144453
6188915.5,-0.90691215,7.547232,7.2194037,10.483462705290428
6188952.0,0.6197632,11.742,4.730779,12.674341812138225
6188988.5,-4.9341764,6.8030376,5.053822,9.806555671642043
6189025.0,-3.3692145,8.363214,6.3938503,11.053337795237072
6189061.5,1.6846073,3.8908687,-1.4429235,4.478703966853048
6189098.0,-1.3735292,8.166995,7.418015,11.118153458803427
6189134.5,3.9913707,2.6752713,4.950927,6.8992604496968495
6189171.0,-6.408208,7.836774,8.882475,13.467684233897266
6189207.5,-0.6173703,6.6522846,8.107173,10.505250617603
6189244.0,-4.3096275,4.9389625,1.2897775,6.680551306940823
6189280.5,-1.2682413,5.230897,7.425194,9.1708355866448
6189317.0,-2.3282995,6.6857853,6.408208,9.549127363830705
6189353.5,2.2110472,5.467795,5.5874405,8.12434632593251
6189390.0,-2.9767776,6.2622404,3.804724,7.9090318259209145
6189426.5,15.539545,8.662328,4.347914,18.31441348604986
6189463.0,-29.628988,9.081086,21.823322,37.902512264482205
6189499.5,-3.670721,6.4464946,7.50416,10.55196202576896
6189536.0,-2.0650797,8.856153,4.469952,10.132939899607868
6189572.5,-5.017928,10.406757,5.7501583,12.905212634640774
6189609.0,-2.1560102,2.4694812,10.023892,10.546332452910892
6189645.5,-17.331833,11.450066,2.3139422,20.900975456882048
6189682.0,-4.2019467,7.367764,7.9875274,11.650789518100808
6189718.5,0.4737958,5.4797597,3.2208543,6.37386470296242
6189755.0,-5.4749737,6.295741,7.379729,11.138765275748192
6189791.5,-5.446259,4.1110163,8.23639,10.695808167036594
6189828.0,-6.4153867,10.205753,11.060021,16.35966519608476
6189864.5,-5.2931128,7.1021514,7.4874096,11.598228319024331
6189901.0,-2.5963054,6.1569524,5.498903,8.653715894882609
6189937.5,-3.771223,4.7953877,5.448652,8.179588909361172
6189974.0,-5.2428617,6.3651357,7.0351496,10.839551705634396
6190010.5,6.3292418,-8.097601,13.376356,16.868827569123
6190047.0,-5.410365,7.1452236,5.884161,10.721456076538436
6190083.5,-4.769066,6.669035,7.2217965,10.925857542133398
6190120.0,-6.1354165,6.4177794,5.6903353,10.54566943735497
6190156.5,-4.1014442,5.573083,5.7405863,8.990852557925212
6190193.0,-4.6422415,1.1509888,4.8839254,6.835781497006238
6190229.5,-5.6831565,3.462538,6.953791,9.625105011199475
6190266.0,-5.3026843,5.9559484,5.314649,9.583176723932938
6190302.5,-5.1184306,5.4797597,6.3603497,9.832606291469752
6190339.0,-3.0653152,7.205046,5.723836,9.699027976676996
6190375.5,-3.8573678,1.4788172,10.088501,10.9015613139813
6190412.0,9.492666,18.34164,3.306999,20.915609196558368
6190448.5,-6.2885623,5.9176617,9.375414,12.746102285327234
6190485.0,-5.503689,5.1638956,8.32732,11.238357031115374
6190521.5,-1.5075321,5.75973,4.8049593,7.650802348779303
6190558.0,-4.457988,3.201711,9.507024,10.9776188525673
6190594.5,-6.101916,3.9650488,12.347405,14.332250384760323
6190631.0,-7.757808,5.6065836,7.004042,11.86060575883108
6190667.5,-6.109094,4.898283,7.4634805,10.817474151704975
6190704.0,-3.8836899,8.224425,9.667349,13.273351140830563
6190740.5,-4.0176926,3.0246358,9.530953,10.776332429864318
6190777.0,-5.7023,-1.902362,4.814531,7.701617701431629
6190813.5,-3.62047,1.8616825,4.347914,5.956342913491654
6190850.0,-7.91574,5.903304,6.2095966,11.664777228852147
6190886.5,-4.83846,3.9387267,8.181353,10.288770582508967
6190923.0,-3.3931437,3.8501892,3.936334,6.467774455266844
6190959.5,-5.436687,4.0607653,8.332106,10.74576059443393
6190996.0,6.764751,25.876907,7.0207925,27.652625540926604
6191032.5,-7.6908064,5.807588,6.063629,11.386139736963795
6191069.0,-5.305077,3.799938,8.619255,10.810870803723352
6191105.5,-4.268948,8.540289,4.453202,10.535248515485005
6191142.0,-5.6305127,3.0007067,9.2485895,11.235805342911402
6191178.5,5.0155354,-3.1801748,-23.644325,24.37874508281411
6191215.0,-6.812609,4.249805,8.674292,11.820144907156171
6191251.5,-5.1136446,7.5591965,8.951869,12.783848067537505
6191288.0,-5.314649,3.7640445,7.9516335,10.27822943456233
6191324.5,-4.166053,2.0507221,9.497452,10.571804634145552
6191361.0,-9.502238,8.009064,5.8961253,13.755069128072025
6191397.5,-5.9870563,4.6278844,7.817631,10.88014299590286
6191434.0,-5.62812,5.5060816,7.260083,10.709877426336286
6191470.5,-2.502982,4.8456388,0.7106937,5.500019982473621
6191507.0,-5.709479,3.4768956,8.808294,11.057712089540782
6191543.5,-25.108784,23.81422,10.569475,36.1840007453941
6191580.0,-6.384279,4.0775156,8.145459,11.123563014554525
6191616.5,-3.9387267,2.837989,8.875296,10.116255664475364
6191653.0,-6.50871,6.774323,5.6616206,10.968532526768263
6191689.5,-4.6542063,3.4745026,7.908561,9.812193520874294
6191726.0,-2.2469406,0.9451987,12.876239,13.10494843284517
6191762.5,-6.3124914,5.2978983,5.941591,10.159615036186059
6191799.0,-7.075829,4.5417395,9.0475855,12.351257308586503
6191835.5,-6.8102164,3.8669395,8.473288,11.538148813498342
6191872.0,-3.3022132,4.824103,5.0466433,7.723029869830761
6191908.5,-4.5034533,1.2610626,10.909268,11.869435487933858
6191945.0,-6.403422,4.7523155,7.24094,10.771236141001841
6191981.5,-6.094737,4.4340587,7.185903,10.413639977434581
6192018.0,-6.401029,5.0131426,7.542446,11.09023275904035
6192054.5,-5.814767,5.5898333,6.11388,10.12113038353315
6192091.0,-5.2978983,3.8836899,8.726935,10.922919395964152
6192127.5,-4.560883,2.9743848,7.9994917,9.676801441412804
6192164.0,-8.5642185,5.4630094,8.222033,13.06874656856271
6192200.5,-6.645106,5.7118716,5.9487696,10.591070327403491
6192237.0,-3.493646,8.978191,4.469952,10.620449467329573
6192273.5,-5.8004093,4.967677,7.678842,10.82992046530442
6192310.0,-6.6020336,2.5221252,9.712814,12.011940683278452
6192346.5,4.6972785,0.107680865,-39.5452,39.82334570971216
6192383.0,-7.7458434,5.6185484,9.365842,13.38974131450754
6192419.5,-4.948534,6.769537,6.944219,10.887460560823447
6192456.0,-3.5080032,4.139731,6.867646,8.752600801184025
6192492.5,-5.0945015,2.3091564,9.703242,11.199957773301076
6192529.0,4.345521,1.14381,-49.068974,49.27429414502269
6192565.5,-7.3845143,4.83846,9.346699,12.85700310395488
6192602.0,-6.843717,5.654442,5.235683,10.306384098409199
6192638.5,-5.8434815,3.4194658,6.743215,9.555625093861568
6192675.0,-5.4007936,5.903304,7.8200235,11.187955003787296
6192711.5,-8.262712,11.371099,13.199281,19.281994735496273
6192748.0,-6.4369226,4.8288884,6.949005,10.63206500300249
6192784.5,-7.181117,4.0296574,9.530953,12.595461294342211
6192821.0,-5.783659,3.8693323,6.6044264,9.593794450014096
6192857.5,-4.979642,3.2854629,5.8721967,8.37100919835424
6192894.0,-5.448652,3.2878556,7.8439527,10.100762200120972
6192930.5,-5.927233,3.9722273,8.626433,11.194910766176
6192967.0,-5.2213254,4.4914885,6.4943523,9.466378382192035
6193003.5,-5.549154,1.9980782,7.324692,9.404070368935743
6193040.0,-5.446259,2.8571322,7.42998,9.64518244014896
6193076.5,-5.080144,3.2926416,7.733879,9.821519034926704
6193113.0,-4.718815,2.4670882,9.502238,10.892486685759511
6193149.5,-9.784601,-1.3974583,36.27888,37.60117605187157
6193186.0,-7.530482,5.391222,6.980113,11.597215670081203
6193222.5,-5.8674107,5.798016,6.8078237,10.695324276945144
6193259.0,-8.72215,3.1323166,10.445044,13.963747780129498
6193295.5,-7.5568037,4.008121,7.360585,11.28488048909689
6193332.0,-6.7097144,2.8403819,6.7049284,9.901722149027488
6193368.5,7.2146177,5.5395823,9.447201,13.114392374411693
6193405.0,-6.3794928,-15.742943,41.00966,44.388403846073366
6193441.5,-7.030364,5.5826545,5.802802,10.68946024315869
6193478.0,-6.381886,6.0875583,6.456066,10.930124572448884
6193514.5,-4.7834234,4.4101295,6.094737,8.914942553354274
6193551.0,-6.5182815,4.50106,8.035385,11.283392527740371
6193587.5,-6.4608517,4.587205,7.185903,10.696833939387247
6193624.0,-6.2861695,4.5202036,6.6714277,10.220377445305555
6193660.5,-6.1617384,3.275891,7.3270845,10.11852999323794
6193697.0,11.069592,-4.5178103,14.577596,18.853455441707922
6193733.5,-6.5254602,3.649185,8.143066,11.05475942146029
6193770.0,-6.798252,3.7831876,9.827674,12.534429182159583
6193806.5,-2.6465564,4.5680614,3.7927594,6.500497642399333
6193843.0,-6.8891826,5.3313994,10.009535,13.269342386670415
6193879.5,-6.0325212,4.0176926,8.466109,11.144871800807095
6193916.0,-6.140202,3.8406174,6.692964,9.861449676355031
6193952.5,-3.7903664,3.4529665,8.394321,9.836385522508367
6193989.0,2.7279153,0.6532639,14.484273,14.753387405797568
6194025.5,10.782444,-6.8891826,18.58811,22.566341504137945
6194062.0,9.964069,-4.9892135,12.541231,16.77669208696113
6194098.5,4.9844275,-9.9927845,6.826967,13.088458197407574
6194135.0,2.00765,-7.4826236,0.63172776,7.772991343397443
6194171.5,-0.66044265,3.6659353,-0.19382556,3.7299912151953425
6194208.0,-0.5431901,21.655819,3.6348274,21.9654620318647
6194244.5,0.21775463,15.096857,4.6470275,15.797385003319116
6194281.0,3.2663195,21.026484,10.617333,23.780446432126233
6194317.5,2.316335,16.731213,12.500552,21.01339326687382
6194354.0,0.82076746,9.746315,6.4680305,11.726028050945047
6194390.5,3.172996,20.078892,5.809981,21.142036013214078
6194427.0,6.0875583,0.45225963,9.229446,11.065513015479338
6194463.5,34.053474,30.349253,-50.997658,68.42132248511167
6194500.0,-2.553233,4.4125223,6.0827723,7.936590619021091
6194536.5,0.13160995,35.410255,38.494713,52.304363195591364
6194573.0,0.08135887,-3.330928,12.462265,12.899990292133428
6194609.5,5.2476473,3.9147975,9.100229,11.210602548643163
6194646.0,0.5814767,-0.25604117,-9.574025,9.595083477177408
6194682.5,-4.381415,-13.31414,31.244202,34.24417147426156
6194719.0,0.1483603,0.011964541,-0.6867646,0.7027087196488959
6194755.5,10.107644,-0.7106937,-0.2392908,10.135423664204685
6194792.0,-5.8985186,-1.3448143,-0.5072965,6.07111167043917
6194828.5,-0.49054617,1.8951832,7.9300976,8.168157861598273
6194865.0,0.07896597,-0.25125536,-0.05025107,0.26812320000871875
6194901.5,5.412758,-2.0148287,9.272519,10.92415179601001
6194938.0,0.6939433,1.0863802,10.4354725,10.514792700801246
6194974.5,2.5819478,4.268948,8.219639,9.615239818067455
6195011.0,0.24407662,1.014593,6.7408223,6.821118503021107
6195047.5,1.1653463,7.212225,-4.113409,8.384172890084608
6195084.0,-2.7159507,5.309863,8.88726,10.703010024810753
6195120.5,-2.8020954,5.805195,8.937511,11.019579415469865
6195157.0,-0.13400285,3.2471762,8.899225,9.474086533185115
6195193.5,-0.3613291,2.7398798,9.712814,10.098329358639024
6195230.0,-1.9717562,-5.7860518,1.4788172,6.289126986755596
6195266.5,-0.6460852,1.849718,10.380435,10.563726310086231
6195303.0,0.30868515,2.3330853,1.7851094,2.953843108371698
6195339.5,-0.1483603,2.3115492,9.609919,9.885130938394177
6195376.0,0.5910483,4.070337,9.459166,10.314688691475759
6195412.5,3.2711053,5.051429,8.659934,10.545687351239135
6195449.0,0.67001426,2.2230117,9.619491,9.895721662719765
6195485.5,-0.019143265,2.6752713,9.526167,9.89471074388168
6195522.0,-0.18186101,2.2038684,9.674527,9.924040609812405
6195558.5,-0.12443122,5.362507,4.113409,6.759593039143754
6195595.0,0.69633627,2.7159507,9.234232,9.650508434044914
6195631.5,0.57669085,2.424016,9.779816,10.092235971210034
6195668.0,-1.0385221,2.1895108,9.751101,10.047709012889758
6195704.5,0.57908374,3.6228628,9.447201,10.13459814595316
6195741.0,0.09332342,6.116273,2.94567,6.7892913047054835
6195777.5,-1.8186102,5.2428617,9.368236,10.88847039838778
6195814.0,-0.26082698,2.2086542,9.6003475,9.854585542245285
6195850.5,0.0598227,2.2804415,9.669742,9.935185078141298
6195887.0,0.96194905,1.4261732,10.095679,10.241193799661989
6195923.5,0.57669085,2.108152,9.789387,10.030402535658611
6195960.0,-0.25125536,2.0387578,9.502238,9.72173799439347
6195996.5,-0.06221561,2.8308103,9.54531,9.956420076152561
6196033.0,0.69633627,2.4264088,9.310805,9.64693908002222
6196069.5,-0.70112205,2.1942968,10.4354725,10.68670187072432
6196106.0,-0.5049036,2.759023,9.810924,10.203987715280627
6196142.5,-0.5910483,2.8284173,9.648206,10.071601736283469
6196179.0,1.588891,0.6580497,9.767851,9.918090399656181
6196215.5,0.7705164,1.7300725,7.6931996,7.922888770099285
6196252.0,0.7944455,2.108152,10.220111,10.465472629551675
6196288.5,0.5814767,1.5960697,9.468738,9.619903999133514
6196325.0,-0.39004403,2.995921,9.404129,9.877515843177404
6196361.5,-0.057429794,-1.6941789,11.567318,11.690867634165059
6196398.0,-0.3852582,1.8927903,9.813316,10.001612365828688
6196434.5,-5.398401,8.269891,33.77829,35.192423983476644
6196471.0,-1.6152129,2.9624202,11.742,12.217176848752516
6196507.5,-0.42115182,1.8018597,9.172017,9.356813724888532
6196544.0,0.650871,0.86862564,9.69367,9.754249413973707
6196580.5,-1.562569,4.5680614,9.743921,10.874410480029342
6196617.0,0.14118157,2.5508401,9.1480875,9.498116779611205
6196653.5,1.926291,-1.0289505,11.923861,12.12220265857044
6196690.0,0.22493336,1.2538838,9.490273,9.575390394906744
6196726.5,-0.06221561,1.6415349,9.712814,9.85074938309983
6196763.0,1.6774286,-0.07657306,6.9083257,7.109472140665312
6196799.5,0.107680865,1.4644598,9.798959,9.908371973143932
6196836.0,0.23211208,2.112938,9.475916,9.711403968972865
6196872.5,0.72505116,1.2754201,9.880318,9.98864752592789
6196909.0,-2.5221252,9.186374,-2.9648132,9.977008574880815
6196945.5,-0.30150643,0.8997334,10.236861,10.280746541556594
6196982.0,-0.4977249,1.9813279,9.935354,10.14320705835755
6197018.5,-0.12682413,1.6247846,9.416093,9.556087941254853
6197055.0,0.24168372,2.0411506,10.028678,10.237142629663678
6197091.5,0.15075321,1.2419193,9.949712,10.028053597831525
6197128.0,-1.718108,1.639142,8.793938,9.108898239835158
6197164.5,-0.32064968,0.9739136,10.212932,10.264273181973143
6197201.0,-0.3565433,0.5049036,9.746315,9.765895086948909
6197237.5,0.2943277,1.2419193,10.114822,10.195029006058972
6197274.0,-1.1031306,12.488587,1.4883888,12.625252615183223
6197310.5,0.023929082,0.55754757,10.098072,10.113480608127068
6197347.0,-0.35415038,0.90691215,9.832459,9.880544627000718
6197383.5,-0.3254355,0.7992313,9.834852,9.872638593479655
6197420.0,-0.069394335,0.5049036,10.287112,10.29972895369422
6197456.5,0.571905,0.94280577,9.440022,9.504208194765848
6197493.0,-0.33740005,1.2873845,10.040643,10.128460371548544
6197529.5,0.22254045,1.40703,9.954497,10.055907129433685
6197566.0,-2.4264088,5.8482676,16.834108,17.98546317840025
6197602.5,-1.5314612,3.7401154,15.178216,15.70707094130152
6197639.0,1.1007377,-3.3740003,9.887496,10.50514534209867
6197675.5,-1.4453164,2.1296883,11.825752,12.102599808172203
6197712.0,-0.25604117,2.6202343,9.195946,9.565385914982597
6197748.5,0.21536173,1.8018597,9.038013,9.21839237835978
6197785.0,-1.0265576,2.658521,10.081322,10.47638333019763
6197821.5,-0.442688,0.8231604,10.56469,10.605953069176394
6197858.0,-0.08375178,5.7358007,9.260554,10.893313748244365
6197894.5,0.08614469,1.8210031,9.538132,9.710789630470263
6197931.0,0.3613291,2.163189,10.107644,10.342843545126447
6197967.5,0.3517575,1.5147108,9.703242,9.827053854386211
6198004.0,-0.021536173,1.7300725,9.504631,9.660829421336697
6198040.5,-0.21296883,1.8210031,9.681706,9.853772834970227
6198077.0,-0.026321989,1.5673548,9.80853,9.933003306004078
6198113.5,0.78008807,1.3902797,10.169859,10.294049112038927
6198150.0,0.48336744,2.2995846,9.576418,9.860502782583316
6198186.5,0.1483603,2.1919038,9.576418,9.825183700969388
6198223.0,0.33022133,1.483603,10.339756,10.450869730693803
6198259.5,-0.60540575,2.3043704,10.423508,10.692341094848837
6198296.0,-0.16511066,1.5242825,9.911426,10.029310246638493
6198332.5,0.002392908,1.2682413,9.944926,10.025467314121093
6198369.0,-0.13400285,1.6558924,9.674527,9.816130045894607
6198405.5,-0.105287954,1.4764243,9.798959,9.910121681925455
6198442.0,0.13639577,1.5984626,9.863567,9.993179696831318
6198478.5,0.047858164,1.7755378,9.698457,9.859761308669661
6198515.0,0.040679436,2.9193478,7.8774533,8.401102123385895
6198551.5,0.17228939,0.43311638,9.920997,9.931941144939385
6198588.0,-0.442688,1.6439278,9.971248,10.115545361198318
6198624.5,-0.20100428,2.5867336,9.748708,10.088057350511608
6198661.0,-0.5264398,0.83751786,9.899461,9.948763899066257
6198697.5,0.23211208,1.2108115,9.719993,9.797867340715692
6198734.0,0.011964541,1.3400285,9.782208,9.873571435216217
6198770.5,-1.2825987,1.6104271,11.280169,11.466505463227108
6198807.0,0.33500713,2.5484471,8.638398,9.012698397541842
6198843.5,0.24886245,1.2586696,10.019106,10.100924052789436
6198880.0,0.13400285,0.7968384,10.141145,10.173285118905676
6198916.5,-0.30868515,1.0744157,9.786994,9.85062978566716
6198953.0,-0.021536173,2.1033661,10.236861,10.45073853326633
6198989.5,-0.84948236,1.9238981,9.911426,10.132096008852796
6199026.0,0.234505,1.2347406,9.820495,9.900590840416463
6199062.5,-0.07418015,1.1055236,9.844424,9.906582105680394
6199099.0,0.045465253,1.119881,9.875532,9.938930165083933
6199135.5,0.071787246,1.225169,9.813316,9.889760533152725
6199172.0,-2.811667,6.020557,6.8413243,9.537101031598045
6199208.5,-0.42354473,1.2347406,9.296448,9.387647197477285
6199245.0,0.11485959,1.3735292,9.73435,9.831446745579594
6199281.5,0.057429794,1.5697477,9.801352,9.92642468619987
6199318.0,-0.19861138,1.7372513,9.655384,9.812437451880811
6199354.5,-0.0071787243,0.9404129,10.447436,10.48967811377761
6199391.0,-0.011964541,0.047858164,9.15766,9.15779286890148
6199427.5,-0.08135887,1.3831009,9.827674,9.924855848604778
6199464.0,0.0071787243,1.2538838,9.753493,9.833763359926555
6199500.5,0.03828653,1.4381378,9.827674,9.932415740415031
6199537.0,-1.0074143,4.737958,7.1763315,8.658109688581032
6199573.5,-0.67001426,-3.278284,10.7298,11.239424946733678
6199610.0,0.13878867,1.5984626,9.748708,9.879860962978332
6199646.5,-0.033500712,1.4692456,9.767851,9.877789129609159
6199683.0,0.08135887,1.3591717,9.822887,9.916807752022702
6199719.5,0.035893623,1.2084186,10.818337,10.885677714803384
6199756.0,0.047858164,1.430959,9.686492,9.791734337164506
6199792.5,0.067001425,1.4812101,9.772636,9.884477069617292
6199829.0,0.07418015,1.3926725,9.789387,9.888232259745887
6199865.5,0.088537596,1.4596739,9.853995,9.961912680819465
6199902.0,-0.15553902,1.536247,9.758279,9.879689077779348
6199938.5,0.040679436,1.3831009,9.731957,9.829832651980556
6199975.0,0.1172525,1.4381378,9.779816,9.885686090221615
6200011.5,-0.08375178,1.2706342,9.954497,10.03561339200907
6200048.0,-11.871217,-9.229446,54.766487,56.79327922253807
6200084.5,-0.41875893,1.1653463,9.923389,10.000352008089488
6200121.0,0.14118157,1.4548881,9.842031,9.949985217285013
6200157.5,-0.31107804,1.6319634,9.858782,9.997782584625142
6200194.0,0.10050214,1.4501023,9.868353,9.974832745125047
6200230.5,0.06460852,0.86623275,10.751336,10.786369139934214
6200267.0,2.8786685,0.208183,9.30602,9.743309537050603
6200303.5,0.27039862,1.4142087,9.806137,9.911277643352676
6200340.0,-0.26082698,1.5027462,9.88271,9.999711685804265
6200376.5,0.14357449,1.222776,9.763065,9.840387846755826
6200413.0,0.040679436,1.6989647,10.119608,10.261315799741443
6200449.5,0.045465253,1.8018597,9.574025,9.742213309527742
6200486.0,0.047858164,1.7731448,9.786994,9.946435765723544
6200522.5,0.28714898,2.0866158,9.73435,9.959617962353008
6200559.0,0.057429794,1.742037,9.751101,9.905653022532583
6200595.5,0.03828653,1.6271775,10.232075,10.360720596585486
6200632.0,0.052643977,1.7946811,9.746315,9.91031319980537
6200668.5,0.040679436,1.7731448,9.679314,9.840468322639747
6200705.0,0.021536173,1.7587874,9.708028,9.866083547889216
6200741.5,2.1225095,1.9095407,12.189474,12.51937173580299
6200778.0,0.18186101,1.251491,9.662563,9.744969311342556
6200814.5,0.12443122,1.7635733,9.708028,9.867698899022384
6200851.0,0.035893623,1.7540016,9.736743,9.893531938242461
6200887.5,0.011964541,2.0674727,9.30602,9.532921627491051
6200924.0,-0.035893623,1.9406484,9.0428,9.24876404740626
6200960.5,2.187118,-0.24886245,8.528324,8.807821973332567
6200997.0,0.208183,1.9143264,9.904246,10.089701410633616
6201033.5,-0.2967206,1.9286839,9.739136,9.932705307572533
6201070.0,-9.662563,0.50968945,7.884632,12.481679728299165
6201106.5,1.8592896,8.693435,10.332577,13.630660929566922
6201143.0,0.043072347,2.21344,8.659934,8.938435475240176
6201179.5,-0.6484781,2.132081,9.708028,9.960527138938211
6201216.0,-1.9813279,2.603484,11.47878,11.935919716300642
6201252.5,-0.81358874,6.0516644,11.5721035,13.084271017630078
6201289.0,6.535032,-15.340934,-4.991606,17.405948112430302
6201325.5,-4.4220943,12.464658,0.17946811,13.22704902302715
6201362.0,-6.3483853,11.765929,-2.2277975,13.553677097057584
6201398.5,-6.568533,9.172017,-7.4658732,13.52814785027338
6201435.0,-7.2529044,3.101209,-2.263691,8.20648624203449
6201471.5,-6.9896846,7.3534064,16.396206,19.2811785865251
6201508.0,-0.96194905,5.0083566,-1.0552725,5.207934509651183
6201544.5,-10.289505,-1.61282,-1.4118158,10.51039130339849
6201581.0,-3.1466742,-12.574732,7.037543,14.749659483175149
6201617.5,-4.1612673,-3.4792883,-1.2036327,5.556106936792656
6201654.0,-8.839402,-1.0552725,-3.1897464,9.45637932102838
6201690.5,-11.280169,-3.4768956,0.6748001,11.82312864079641
6201727.0,-8.724543,-3.5821834,9.751101,13.565900603435276
6201763.5,-9.60274,-2.5364826,0.208183,9.934268953938775
6201800.0,-9.346699,-1.9454343,1.7061435,9.698269044257833
6201836.5,-6.927469,-3.5750046,2.0267932,8.054711373571893
6201873.0,-18.202852,-17.992275,13.63479,28.99953928864438
6201909.5,-9.054764,-2.88824,2.4575167,9.816825847700207
6201946.0,-9.480701,-2.8451676,-0.48576033,9.910329622252354
6201982.5,-9.514202,-2.3641932,-2.3522286,10.081786973071202
6202019.0,-13.419429,0.5144752,-3.0796728,13.777886048756386
6202055.5,-7.2002606,-2.9121692,2.7015932,8.223325846373061
6202092.0,-7.8630958,36.532528,-73.51732,82.46969272170935
6202128.5,-8.643184,-3.1371026,4.0464077,10.045867690518428
6202165.0,-9.614705,-1.0050215,0.19861138,9.669129585063631
6202201.5,-10.069357,-1.9143264,4.1612673,11.0622213637784
6202238.0,-8.028207,-0.61497736,0.37329367,8.060375484567928
6202274.5,1.7827165,7.5639825,6.046879,9.846657047969098
6202311.0,-9.784601,-0.234505,-2.290013,10.051744568202825
6202347.5,-7.753022,-0.31825677,-1.6774286,7.938791105214495
6202384.0,-12.988705,0.3804724,-0.48815325,13.003442252714176
6202420.5,-5.329006,-1.74443,-8.052135,9.812146504774631
6202457.0,-14.89346,-1.7276796,-2.443159,15.191084670659206
6202493.5,-10.066964,-1.7396442,2.0890088,10.427563660144544
6202530.0,-14.802529,-3.3357139,8.013849,17.159942535256206
6202566.5,-9.432844,0.78248096,-5.1519313,10.776512353308847
6202603.0,-9.033228,0.57669085,2.234976,9.323459559467919
6202639.5,-11.710893,1.4788172,-3.4505734,12.297901119998176
6202676.0,-10.650834,0.49533197,-2.266084,10.900493353565063
6202712.5,-10.270362,-1.8712541,0.045465253,10.43953996146579
6202749.0,-7.525696,-0.2943277,2.4120514,7.90826915548815
6202785.5,-17.341406,-22.060219,-16.097094,32.34956042405573
6202822.0,-8.765223,-0.4402951,1.4740313,8.899200092603419
6202858.5,-11.261025,-1.5123179,-0.6532639,11.38088499214049
6202895.0,-6.6546774,-2.316335,-0.6460852,7.075843781200572
6202931.5,-10.634084,0.34697166,1.8880045,10.805956359523178
6202968.0,-12.045899,0.49533197,-1.5936768,12.16095564590067
6203004.5,-9.231839,-0.8877689,2.5340896,9.61439519900011
6203041.0,-7.336656,-1.5673548,-4.4149156,8.704860830969235
6203077.5,-10.346934,-0.94280577,1.8927903,10.560803995912213
6203114.0,-9.088264,0.28236315,1.3663505,9.19473681901903
6203150.5,-9.748708,1.7540016,3.1610315,10.397401089986806
6203187.0,-3.2184613,-0.5934412,2.5293038,4.136187049705268
6203223.5,-8.009064,0.21057591,0.234505,8.015263000363328
6203260.0,-7.839167,-2.031579,2.4096584,8.449041726244495
6203296.5,-15.240432,-4.166053,0.22971918,15.801251091198218
6203333.0,-8.717364,-1.3184924,1.0983448,8.884661986650972
6203369.5,-10.526402,1.4429235,1.14381,10.686227987861583
6203406.0,-3.4505734,3.9411197,13.608468,14.581813418966094
6203442.5,-10.050214,0.7633377,-0.18903974,10.080933583420563
6203479.0,-7.63577,-2.5651975,3.2232473,8.676090413536707
6203515.5,-12.711128,-1.8688612,66.25484,67.48903052083983
6203552.0,-11.7228565,-2.4766598,1.0457008,12.027165021219629
6203588.5,-9.284483,0.27279153,3.4075012,9.893791195700977
6203625.0,7.6142335,-16.592424,-77.144966,79.27566376341136
6203661.5,-11.763536,2.165582,-1.1581675,12.01714927010879
6203698.0,-8.320142,-1.1988469,1.1055236,8.478453822482056
6203734.5,-6.3100986,-1.978935,1.7013576,6.828480486830487
6203771.0,-3.7616515,0.2943277,4.843246,6.139518109669156
6203807.5,-10.253612,-0.94280577,1.8329676,10.458738546743534
6203844.0,-8.588147,0.63651353,2.833203,9.065784996716559
6203880.5,21.773071,-26.585209,-78.36774,85.57068791970953
6203917.0,-11.23231,2.88824,0.8255533,11.627048485528942
6203953.5,-7.1212945,-4.242626,4.113409,9.253801615168074
6203990.0,-12.967169,2.2828343,-7.8798466,15.344405715287545
6204026.5,-9.112194,-0.6532639,1.9071478,9.332526236112281
6204063.0,-7.8798466,-0.002392908,1.0720228,7.952434913236329
6204099.5,-13.56061,-3.5989337,3.7951522,14.534292124842562
6204136.0,-7.2481184,-0.17228939,2.7901309,7.768509149988815
6204172.5,-10.763301,0.7513731,3.4816813,11.3373416031614
6204209.0,-15.857802,1.119881,-6.64032,17.22840292736866
6204245.5,-9.736743,0.2584341,1.0480938,9.796400004373558
6204282.0,-8.480466,2.2947989,0.0071787243,8.785468519246983
6204318.5,-11.313669,-5.805195,13.936296,18.86583529635521
6204355.0,-8.078458,1.1031306,1.3950654,8.271915633557773
6204391.5,-8.758043,-0.7226582,2.5651975,9.154550249896632
6204428.0,-17.216974,1.2395264,-10.669977,20.29307834197419
6204464.5,-9.320377,1.0600582,1.2849916,9.468070248027674
6204501.0,-8.6455765,2.866704,-0.14118157,9.109550871293049
6204537.5,-30.418648,7.061472,34.90535,46.83526440170043
6204574.0,-8.923154,0.2392908,3.6898644,9.658935587582516
6204610.5,-11.328027,33.67061,-18.758007,40.173336930069404
6204647.0,-11.785072,0.8805902,-1.0337363,11.863050698848829
6204683.5,-9.329948,4.687707,2.8212388,10.81581781314656
6204720.0,-11.574496,4.7475295,2.3259068,12.724693962908205
6204756.5,-8.334499,3.6635423,4.453202,10.134911140098579
6204793.0,-8.102386,2.7494514,2.6465564,8.956137709545276
6204829.5,-8.013849,-0.009571632,2.0459363,8.270896127663425
6204866.0,-11.076772,-2.656128,-2.4790528,11.657426674766427
6204902.5,-10.217717,-1.7946811,-0.9164838,10.414536163384746
6204939.0,-9.932961,2.7997024,3.22564,10.812344850479326
6204975.5,-5.752551,-4.905462,1.9813279,7.815437331868474
6205012.0,-8.559432,-2.3785505,-4.1301594,9.796917643477595
6205048.5,-9.899461,2.8786685,-2.6896286,10.654584104006652
6205085.0,-8.822652,-0.37090075,-3.8190813,9.620921871393834
6205121.5,-7.4850163,-3.5367181,-2.502982,8.648627799972507
6205158.0,-11.665427,3.0078855,-3.776009,12.624888365507246
6205194.5,-6.324456,0.08135887,7.922919,10.137948926791093
6205231.0,-9.054764,2.4862316,4.8336744,10.56098986221225
