timestamp,accel_x,accel_y,accel_z,magnitude
87829.09204180064,-4.948534,1.3639576,13.591718,14.528701499971625
87833.6503215434,10.035856,4.850425,9.078693,14.37594153165663
87838.20860128617,0.5623334,-0.7705164,4.36945,4.4723604145824964
87842.76688102893,-5.410365,3.0533507,15.704656,16.888789773360063
87847.32516077171,9.399343,4.4340587,8.040172,13.139744715034562
87851.88344051447,0.3326142,-1.8449322,4.027264,4.442213677248594
87856.44172025724,-5.3074703,5.206968,18.152601,19.616286085893197
87861.0,8.602505,3.5032175,5.099287,10.596148028208187
87866.09204180064,-1.2682413,-1.0241647,6.109094,6.322845785608548
87870.6503215434,-2.7733805,4.6039553,18.470858,19.236960234359856
87875.20860128617,8.920761,4.4723454,2.3881223,10.260846861530458
87879.76688102893,-2.1823323,-2.9025974,9.629062,10.291087451477324
87884.32516077171,-3.4170728,7.6429486,16.171272,18.209917295823335
87888.88344051447,9.195946,1.562569,3.070101,9.820008394338469
87893.44172025724,-2.7542372,-2.1153307,9.284483,9.912722688621695
87898.0,-0.26082698,7.8439527,15.850623,17.68722347236734
87902.09204180064,10.945162,-0.4737958,1.9047549,11.1197637068157
87906.6503215434,-5.309863,-0.39961565,11.342384,12.530124203293035
87911.20860128617,3.101209,6.7312503,13.417036,15.327885793162313
87915.76688102893,10.521617,-0.9858781,3.567826,11.15373310999616
87920.32516077171,-5.309863,-0.84230363,10.736979,12.00778241518063
87924.88344051447,4.544132,8.473288,12.055471,15.42012082300943
87929.44172025724,8.643184,-3.1825678,5.2452545,10.599342537592749
87934.0,-7.585519,1.8425392,9.461558,12.266055967190987
87938.09204180064,7.9133472,6.9729342,12.900167,16.663048457385177
87942.6503215434,7.4036574,-3.5462897,4.6015625,9.410881519512776
87947.20860128617,-8.703007,3.441002,10.760908,14.261134828284774
87951.76688102893,9.023657,7.343835,11.337599,16.244982279020036
87956.32516077171,2.9576344,-3.436216,6.058843,7.567348289947303
87960.88344051447,-6.999256,2.759023,10.839873,13.194871697905745
87965.44172025724,12.311512,5.9870563,9.964069,16.932242671963884
87970.0,-0.057429794,-4.1995535,7.1906886,8.327397572037203
87975.09204180064,-8.391929,6.45128,12.301941,16.229024565479033
87979.6503215434,13.103564,3.0007067,10.827909,17.261264250158558
87984.20860128617,-2.6178415,-3.0366004,6.116273,7.313195711789163
87988.76688102893,-4.635063,5.5443683,14.273697,15.998820422388112
87993.32516077171,15.044213,0.442688,8.423037,17.247372836408505
87997.88344051447,-6.439316,-1.6367491,6.6307483,9.38672260068229
88002.44172025724,-2.1560102,6.980113,14.271304,16.03248188321724
88007.0,12.79488,-1.6199988,9.67692,16.123775333736248
88011.09204180064,-5.5012956,-1.8521109,5.541975,8.025462912823357
88015.6503215434,0.5695121,9.083479,14.694849,17.285037515385625
88020.20860128617,8.411072,-4.008121,8.710185,12.754547772228147
88024.76688102893,-8.068886,1.3639576,5.9511623,10.118479843164932
88029.32516077171,6.6977496,7.2194037,14.398128,17.443787701994594
88033.88344051447,5.666406,-4.374236,7.006435,10.016597673349818
88038.44172025724,-8.073672,2.3785505,7.85831,11.514977989589658
88043.0,10.016713,8.028207,11.832931,17.458662692485326
88048.09204180064,-0.84230363,-4.245019,7.8798466,8.990085881403122
88052.6503215434,-6.4488873,3.5271466,9.279697,11.838145418848422
88057.20860128617,13.878867,4.63267,11.332812,18.507220438518935
88061.76688102893,-3.3859649,-3.9435124,6.561354,8.3706280927002
88066.32516077171,-6.5541754,7.011221,13.440965,16.515870404433162
88070.88344051447,12.837952,-0.37329367,10.873374,16.828030837333348
88075.44172025724,-5.534796,-2.4000869,5.5850477,8.221139927068684
88080.0,-0.37807947,6.2909555,15.106429,16.368361626035046
88085.09204180064,9.684099,-1.0313433,7.1476164,12.080308880397258
88089.6503215434,-7.420408,0.39482984,6.65707,9.976719223969292
88094.20860128617,2.8188457,9.045193,14.063121,16.9567915523043
88098.76688102893,2.28762,-1.7492158,6.3124914,6.938336173351908
88103.32516077171,-6.389065,1.2371335,8.169388,10.444594351414096
88107.88344051447,9.844424,6.219168,13.144244,17.560235899199533
88112.44172025724,-0.23211208,-2.392908,5.565904,6.062934277341452
88117.0,-7.7937016,5.577869,12.397656,15.670235528074858
88121.09204180064,10.502474,2.318728,11.842503,15.99760410072924
88125.6503215434,-3.6276486,-0.885376,5.068179,6.2952492724672116
88130.20860128617,-3.3476784,4.8217096,15.101643,16.20232870410941
88134.76688102893,10.208146,0.16989647,7.822417,12.861777376775088
88139.32516077171,-5.9511623,0.60540575,6.484781,8.822427866581588
88143.88344051447,-1.0887731,8.341678,13.668291,16.049647895815305
88148.44172025724,4.761887,-0.43311638,7.7889156,9.13949472472722
88153.0,-4.905462,1.7563945,7.2576904,8.934346591403672
88157.09204180064,8.456537,6.195239,12.033935,15.95962392676328
88161.6503215434,1.4788172,-0.63172776,6.412994,6.611540842935667
88166.20860128617,-8.5642185,5.379257,10.882946,14.85667385475993
88170.76688102893,12.041114,2.2995846,11.507495,16.813653882145253
88175.32516077171,-2.3881223,0.89494765,5.3242207,5.903506202106194
88179.88344051447,-5.0322857,5.388829,12.565161,14.568687254299425
88184.44172025724,12.232546,0.61497736,10.363685,16.04429324011044
88189.0,-4.790602,0.92366254,6.334028,7.995181718697033
88194.09204180064,-3.5295393,7.3031554,11.584068,14.141582581006189
88198.6503215434,8.980584,-1.7252867,11.689356,14.841446926529398
88203.20860128617,-4.115802,1.0241647,6.661856,7.897408739622516
88207.76688102893,6.4369226,6.9155045,9.136123,13.14256133784583
88212.32516077171,6.4704237,-2.2110472,9.583597,11.772868980692792
88216.88344051447,-9.049978,5.1423593,9.428058,14.044010774068228
88221.44172025724,11.138988,4.4364514,8.91119,14.938823979979347
88226.0,0.33022133,-0.9140909,9.088264,9.140084837349475
88230.09204180064,-6.3124914,4.012907,11.088737,13.37576384812815
88234.6503215434,15.975055,1.4405307,7.061472,17.5254642665309
88239.20860128617,-4.0176926,0.10050214,9.904246,10.688594076713521
88243.76688102893,-6.793466,7.025578,10.330184,14.220500272532467
88248.32516077171,14.127729,-1.1127023,12.0794,18.621029441625033
88252.88344051447,-3.6922572,0.031107806,8.121531,8.921490722435738
88257.44172025724,-0.8231604,7.2217965,8.545074,11.21829877463675
88262.0,12.105722,-2.6154485,12.390478,17.518933217120278
88266.09204180064,-7.839167,3.6659353,9.327556,12.72379353065787
88270.6503215434,6.4680305,5.5084743,5.0897155,9.903732202237245
88275.20860128617,5.2213254,-2.2924058,13.596504,14.743889727835555
88279.76688102893,-6.0014133,2.761416,9.775029,11.798032542475626
88284.32516077171,12.761379,4.582419,2.8475606,13.854961538881092
88288.88344051447,-0.16032484,-3.328535,14.678099,15.051625810999521
88293.44172025724,-7.449123,4.8049593,8.724543,12.437633131051685
88298.0,16.803001,1.0385221,6.43453,18.022834046816538
88303.09204180064,-1.2179902,-2.8930259,12.847524,13.225428987973995
88307.6503215434,-5.915269,6.264633,8.217246,11.90626582063268
88312.20860128617,16.0612,-0.6173703,10.18661,19.029196378707695
88316.76688102893,-5.9870563,0.0071787243,11.854466,13.280559431688422
88321.32516077171,-1.8329676,5.659228,5.0897155,7.828910246616319
88325.88344051447,13.496001,-2.3330853,14.302412,19.8026341436391
88330.44172025724,-5.4510446,0.4139731,10.669977,11.988897786670872
88335.0,1.1677392,7.958812,1.1055236,8.119635812074184
88340.09204180064,6.5924616,-3.5391111,19.210266,20.61601748923331
88344.6503215434,-7.9253116,2.988742,8.829831,12.235565299086902
88349.20860128617,8.805902,5.1184306,0.21775463,10.18772098751761
88353.76688102893,6.1593456,-4.941355,18.714933,20.312637560168135
88358.32516077171,-7.683628,4.905462,7.887025,12.054329513766122
88362.88344051447,12.8092375,3.0581365,2.239762,13.358341888149235
88367.44172025724,-0.9763065,-2.5843408,18.023384,18.233879525870048
88372.0,-5.6185484,3.7616515,5.6927285,8.838849806694707
88376.09204180064,15.623297,1.1533817,6.3148847,16.890691734514547
88380.6503215434,-3.433823,-1.6941789,15.508437,15.974135367008232
88385.20860128617,-6.089951,5.888947,2.9265265,8.962798519793484
88389.76688102893,13.957833,-0.6652284,14.769029,20.331941581730373
88394.32516077171,-6.1545596,0.94280577,11.619962,13.182981585033843
88398.88344051447,-1.0337363,4.7403507,0.8614469,4.927639014624324
88403.44172025724,12.4670515,-2.5508401,19.219837,23.05073301710792
88408.0,-7.1787243,3.4003224,9.227054,12.175171477982076
88413.09204180064,1.8449322,3.6324344,0.50968945,4.105866270148298
88417.6503215434,7.2505116,-2.2230117,22.94081,24.1617975932291
88422.20860128617,-5.1327877,3.1849606,6.0564504,8.553950844170418
88426.76688102893,7.2337613,2.000471,1.7779307,7.712990622399406
88431.32516077171,4.2856984,-1.2275618,21.586424,22.041955899065712
88435.88344051447,-6.3388133,4.343128,4.819317,9.070233250756559
88440.44172025724,6.7264647,1.6152129,5.8985186,9.091026440794156
88445.0,0.46183127,1.093559,18.58093,18.618810893108368
88449.09204180064,-2.7446656,3.2519622,3.4960387,5.507334563829393
88453.6503215434,8.226818,0.22014755,8.585754,11.893030358046305
88458.20860128617,-2.3330853,3.1083877,15.931982,16.399189356761248
88462.76688102893,-3.017457,2.6896286,2.9121692,4.981955258953617
88467.32516077171,6.9035397,0.49293905,11.605604,13.512656789147979
88471.88344051447,-0.22732627,3.5103962,13.1107435,13.574466981682884
88476.44172025724,-1.3208853,1.8114314,3.3644288,4.042944823137152
88481.0,5.4534373,0.703515,13.764008,14.821701250677005
88485.09204180064,-2.2086542,4.6589923,11.564925,12.66222148290978
88489.6503215434,0.25604117,1.119881,3.4027152,3.591401017319983
88494.20860128617,6.484781,0.2919348,14.635026,16.01004673841048
88498.76688102893,-2.0985804,5.15911,9.408915,10.933807075515332
88503.32516077171,-1.0265576,0.77290934,3.6874714,3.9049525835527064
88507.88344051447,3.1801748,1.2299547,16.3986,16.749339756617484
88512.44172025724,-1.9597918,4.4340587,8.714972,9.972582284201867
88517.0,0.416366,-0.4139731,4.4388447,4.477507860875032
88522.09204180064,5.5252247,-0.1459674,16.99204,17.86837535504985
88526.6503215434,-4.175625,5.597012,8.166995,10.745333629012828
88531.20860128617,0.8351249,-0.7059079,4.819317,4.941817065449855
88535.76688102893,6.2048106,0.6652284,17.360548,18.448057628551116
88540.32516077171,-1.5841051,5.0370717,6.798252,8.608002702967216
88544.88344051447,1.328064,-0.71787244,4.3550925,4.609330267160708
88549.44172025724,4.144517,1.8210031,17.305511,17.88781105738261
88554.0,-3.328535,5.903304,6.3603497,9.294202045841866
88558.09204180064,2.3785505,-0.53840435,4.737958,5.328754801537895
88562.6503215434,7.161974,0.43790218,17.52566,18.937644740873264
88567.20860128617,-4.343128,5.671192,5.809981,9.20766304474751
88571.76688102893,1.2658484,-0.7106937,4.836067,5.049257542994935
88576.32516077171,5.7501583,1.251491,18.614431,19.5224893815287
88580.88344051447,-2.108152,4.714029,5.360114,7.442929286305293
88585.44172025724,2.2947989,-0.93084127,4.891104,5.48228654852995
88590.0,5.970306,0.60301286,19.176765,20.093692893746194
88594.09204180064,-5.5754757,5.0155354,5.7166576,9.429830260698303
88598.6503215434,1.7276796,-0.0598227,5.209361,5.4887063670789
88603.20860128617,9.207911,-0.4977249,19.21266,21.31102201527653
88607.76688102893,-4.0488005,4.606348,4.7547083,7.760056597989033
88612.32516077171,1.1222739,0.12682413,4.524989,4.663808370494275
88616.88344051447,6.8963614,1.0600582,20.066927,21.245354390316162
88621.44172025724,-3.4721096,3.8334389,5.0107493,7.201278179732808
88626.0,2.3641932,0.22732627,4.824103,5.37708624392127
88631.09204180064,9.98082,-1.3448143,19.942495,22.341181709992636
88635.6503215434,-6.9585767,4.405344,5.0657864,9.66907634154079
88640.20860128617,-0.41875893,1.2155973,5.2021823,5.358706608842783
88644.76688102893,9.813316,-0.77530223,20.423471,22.672018704816296
88649.32516077171,-5.0633936,3.436216,4.6278844,7.672212794685789
88653.88344051447,-0.3613291,0.82076746,5.025107,5.104499809320269
88658.44172025724,7.6118407,-0.17946811,20.715405,22.070349611157237
88663.0,-6.4680305,3.462538,4.685314,8.704984504809314
88668.09204180064,0.234505,1.4955676,6.43453,6.6102111435335225
88672.6503215434,12.34262,-2.1919038,19.408878,23.105178119887725
88677.20860128617,-7.542446,4.118195,4.3526998,9.632965133844358
88681.76688102893,-2.3641932,1.9813279,6.7767158,7.445733460728653
88686.32516077171,9.358664,-0.002392908,19.167194,21.329930225496298
88690.88344051447,-5.441473,3.1371026,4.170839,7.53969091518855
88695.44172025724,-1.3232782,1.6534995,6.7336435,7.058829972182908
88700.0,9.803744,-0.70112205,18.614431,21.049988361048875
88704.09204180064,-7.181117,4.087087,4.1516957,9.247123806819962
88708.6503215434,-1.5529974,2.3665862,7.736272,8.237865963004083
88713.20860128617,12.043507,-1.720501,17.669233,21.452458585400855
88717.76688102893,-6.7551794,4.2617693,3.876511,8.87820160988293
88722.32516077171,-2.471874,2.0220072,7.5568037,8.203898850489413
88726.88344051447,9.387379,-0.09810923,18.071241,20.364239764615157
88731.44172025724,-4.319199,3.3692145,4.1038375,6.84460141827247
88736.0,-1.5218896,2.3115492,7.760201,8.238939690215593
88741.09204180064,10.038249,-1.40703,17.695555,20.393107736804758
88745.6503215434,-7.741058,4.993999,4.1995535,10.124240938002574
88750.20860128617,-1.9119335,2.2469406,8.827438,9.307410671727911
88754.76688102893,12.328262,-1.8186102,16.453636,20.640143522288888
88759.32516077171,-5.0705724,4.139731,4.6398487,8.023482608873435
88763.88344051447,-2.390515,2.1895108,7.786523,8.43436185719291
88768.44172025724,8.707792,0.023929082,16.984861,19.086951493246644
88773.0,-5.3026843,3.8214743,5.0346785,8.250461454330251
88777.09204180064,-1.978935,2.6609137,8.487645,9.112450992960001
88781.6503215434,12.158366,-1.7946811,15.321791,19.64189460027556
88786.20860128617,-7.374943,5.0849295,5.57069,10.548880478482978
88790.76688102893,-2.9480627,2.4048727,9.126552,9.887792362051329
88795.32516077171,12.120079,-1.3567789,14.474701,18.92760240994953
88799.88344051447,-4.2115183,3.7377224,5.9870563,8.219020517681308
88804.44172025724,-4.063158,2.967206,8.135887,9.56588844050405
88809.0,8.580969,0.016750356,15.398363,17.62790097070993
88813.09204180064,-5.3696856,3.6515777,6.2335258,9.001354733663721
88817.6503215434,-3.1179593,2.605877,9.418487,10.25768797072491
88822.20860128617,12.316298,-2.079437,12.907347,17.961482712743454
88826.76688102893,-6.9466124,5.0370717,6.9107184,11.017510787418056
88831.32516077171,-5.0968943,2.4623024,9.337128,10.918938771822207
88835.88344051447,10.722621,-0.8446966,12.780522,16.704186782006975
88840.44172025724,-2.706379,2.1368668,7.5352674,8.286793215839648
88845.0,-4.4603806,2.7542372,8.813081,10.25432661676432
88850.09204180064,10.784837,-1.3950654,12.550803,16.606672530391364
88854.6503215434,-4.4843097,3.6300416,7.9013824,9.783561689603353
88859.20860128617,-4.1493025,3.1347096,9.581204,10.901494649930092
88863.76688102893,12.589089,-1.7109293,10.062179,16.206785219393772
88868.32516077171,-4.1301594,4.03205,9.030835,10.717818092743194
88872.88344051447,-6.4106007,3.2687125,8.92794,11.466838944805003
88877.44172025724,9.923389,-0.088537596,10.52401,14.46500171556597
88882.0,-1.0026284,1.5673548,9.487881,9.668596105315942
88886.09204180064,-6.0779867,3.9985495,8.951869,11.535435796817048
88890.6503215434,10.1339655,-0.8518753,9.461558,13.890429369508501
88895.20860128617,-3.5582542,3.668328,10.382828,11.572420686484985
88899.76688102893,-5.853053,3.5750046,9.818102,11.976394039661278
88904.32516077171,10.710656,-0.6221561,7.5017667,13.091284649885667
88908.88344051447,-1.3160994,2.3833365,11.270597,11.594773272441408
88913.44172025724,-7.592697,4.1732316,9.0978365,12.563261467540178
88918.0,8.616862,0.44747382,8.171782,11.883962495824084
88923.09204180064,1.7013576,0.50968945,11.574496,11.709968346350689
88927.6503215434,-6.5996404,5.173467,9.270126,12.500210008846937
88932.20860128617,9.076301,-0.2584341,6.707321,11.288674989726864
88936.76688102893,-0.8518753,2.526911,12.840344,13.114320598757951
88941.32516077171,-6.848503,4.5034533,9.255769,12.363346826310865
88945.88344051447,8.435001,0.44747382,5.989449,10.354852679453598
88950.44172025724,3.3117847,-0.033500712,13.347641,13.752401988806886
88955.0,-8.396714,6.015771,8.451752,13.346400960249207
88960.09204180064,4.929391,1.4859959,6.690571,8.4422046736465
88964.6503215434,4.3287706,-0.18425392,13.376356,14.060551349545142
88969.20860128617,-6.1378093,5.6113696,8.57379,11.944456737544435
88973.76688102893,4.8576035,1.1390243,5.317042,7.291407528657738
88978.32516077171,2.9600272,0.45943835,14.986783,15.28321004603678
88982.88344051447,-5.9487696,4.6900997,8.456537,11.35332167174846
88987.44172025724,3.6396132,1.7061435,6.2670264,7.445356256520131
88992.0,7.4778376,-2.7518444,14.55606,16.594263632273204
88996.09204180064,-7.3557997,6.2622404,8.461323,12.842018181120958
89000.6503215434,1.1892753,2.029186,7.1835103,7.5587559685435135
89005.20860128617,7.6931996,-1.8640754,13.74965,15.865464768005547
89009.76688102893,-4.3048415,4.474738,8.889653,10.843471352347239
89014.32516077171,-0.3254355,2.41923,6.482388,6.92675510178498
89018.88344051447,6.3053126,-1.3472073,13.991334,15.405497771654378
89023.44172025724,-4.3048415,3.6826856,9.231839,10.831467347062937
89028.0,-1.5386399,2.9313123,7.5663753,8.258936960799094
89032.09204180064,9.124159,-2.4335876,11.136594,14.601244877920196
89036.6503215434,-4.979642,4.819317,10.507259,12.58670498930256
89041.20860128617,-3.0868514,2.7398798,7.918133,8.929301377477357
89045.76688102893,8.317748,-1.0528796,9.796566,12.894424866427977
89050.32516077171,-1.509925,2.3498356,11.311276,11.651032812623452
89054.88344051447,-3.6946502,4.242626,7.260083,9.18472213205849
89059.44172025724,6.8915753,-0.023929082,9.183981,11.482155273505773
89064.0,-1.746823,2.94567,12.184688,12.656815713265836
89069.09204180064,-3.6611493,4.685314,7.6333766,9.675981593250064
89073.6503215434,7.84156,-0.25364825,6.793466,10.378129935662015
89078.20860128617,-0.9164838,2.340264,14.032013,14.255320655023072
89082.76688102893,-4.4962745,4.455595,7.1906886,9.579917208699937
89087.32516077171,5.752551,0.703515,6.9705415,9.06505516618891
89091.88344051447,3.177782,-0.78487384,15.144715,15.494409243835834
89096.44172025724,-5.415151,5.1686816,7.822417,10.82724976884105
89101.0,3.6324344,0.40440148,6.609212,7.552470025645488
89105.09204180064,3.4505734,-0.8710185,15.94634,16.338631809662942
89109.6503215434,-3.8812969,4.2665553,8.231604,10.051231972585436
89114.20860128617,2.2828343,0.7776951,5.6424775,6.136260624177134
89118.76688102893,3.7831876,-1.4596739,15.786015,16.298509928559728
89123.32516077171,-4.371843,4.170839,8.463716,10.399201782311275
89127.88344051447,0.45465255,1.2395264,6.7312503,6.859509110626544
89132.44172025724,6.92029,-2.706379,12.986312,14.96192502110223
89137.0,-5.185432,4.6278844,10.337363,12.456608400369515
89141.09204180064,-2.3306925,1.3998512,6.3771,6.932468198390649
89145.6503215434,5.6305127,-1.3137065,11.665427,13.019626919590765
89150.20860128617,-2.3594074,2.6752713,11.629534,12.164289575019762
89154.76688102893,-3.6276486,3.0748868,6.2095966,7.821371563391408
89159.32516077171,5.4295087,-1.7563945,10.691513,12.119114513535012
89163.88344051447,-2.0985804,2.1584032,13.216031,13.5545645249855
89168.44172025724,-3.2902486,3.5462897,6.4728165,8.080795748489148
89173.0,6.357957,-1.9358627,8.389536,10.703060118601421
89178.09204180064,-1.6534995,2.1679747,14.972425,15.218662401044492
89182.6503215434,-4.1110163,4.063158,5.8363028,8.214142580033386
89187.20860128617,3.6802926,-0.46422416,7.889418,8.7179684600867
89191.76688102893,2.2612982,-0.30868515,15.328969,15.497936852178576
89196.32516077171,-4.8312817,5.161503,7.1189017,10.03300341363576
89200.88344051447,1.9550059,-0.9691278,7.0973654,7.425217329000197
89205.44172025724,2.4766598,-1.0026284,15.585011,15.81238993142857
89210.0,-3.9985495,4.108623,8.260319,10.054951568348814
89215.09204180064,-0.234505,0.10289505,6.4799953,6.485053513608163
89219.6503215434,2.5651975,-1.9597918,14.747493,15.096674199915771
89224.20860128617,-4.9820347,3.7161863,9.877925,11.670651767315173
89228.76688102893,-2.6656997,1.3639576,6.5804973,7.229749645768181
89233.32516077171,4.943748,-2.8523464,12.153581,13.427064288095815
89237.88344051447,-5.491724,4.168446,12.179902,13.995891799978164
89242.44172025724,-3.9937637,2.3618002,4.682921,6.592268029168621
89247.0,3.773616,-1.6415349,11.634319,12.340672313011758
89251.09204180064,-1.9813279,2.1775463,13.163387,13.488592419067718
89255.6503215434,-5.398401,4.115802,4.900676,8.372525587717305
89260.20860128617,2.2325833,-2.1536174,11.227525,11.648167826857865
89264.76688102893,-1.7779307,1.40703,14.508202,14.68430101393003
89269.32516077171,-5.546761,3.771223,6.1545596,9.103146949094151
89273.88344051447,2.0028641,-1.7013576,9.035621,9.410022802405294
89278.44172025724,-1.40703,0.5264398,15.721406,15.793019942391007
89283.0,-5.6879425,3.436216,6.50871,9.301804993981666
89288.09204180064,0.45225963,-0.6843717,8.686256,8.7249038214885
89292.6503215434,2.1584032,-1.7611804,14.831244,15.090601689881368
89297.20860128617,-7.142831,4.087087,8.51636,11.842833380983201
89301.76688102893,-1.304135,-0.49533197,7.0088277,7.146312866577867
89306.32516077171,1.8210031,-1.3448143,14.979605,15.149691209649095
89310.88344051447,-5.206968,3.0629225,9.341913,11.124987572739093
89315.44172025724,-3.1036017,1.3878866,5.8458743,6.762604458202693
89320.0,1.7731448,-1.7085364,15.175823,15.374288368546395
89324.09204180064,-5.0370717,3.1634245,9.920997,11.567433913887303
89328.6503215434,-3.5726118,2.2014754,5.448652,6.8773437915672355
89333.20860128617,4.0248713,-2.4886243,14.637419,15.383331071964719
89337.76688102893,-5.003571,3.6778998,10.983448,12.61740066969362
89342.32516077171,-4.8288884,3.0318146,4.338342,7.164584723303349
89346.88344051447,3.2663195,-1.354386,14.9819975,15.393617300786794
89351.44172025724,-1.770752,3.280677,10.5766535,11.214455113062572
89356.0,-4.065551,4.7212076,4.2785196,7.558057693844558
89360.09204180064,3.8812969,-2.0339718,14.197124,14.857988988437192
89364.6503215434,-2.4144442,4.5848117,10.514439,11.72192247901732
89369.20860128617,-3.749687,4.2593765,5.5563326,7.941994253872513
89373.76688102893,5.4247227,-2.0674727,12.837952,14.089537653572759
89378.32516077171,-1.6223917,4.115802,11.189239,12.03208420559605
89382.88344051447,-4.0033355,4.1062303,5.446259,7.908827947128408
89387.44172025724,3.8812969,-0.7896597,12.907347,13.501393803832354
89392.0,2.000471,2.9049904,10.758514,11.321946693662232
89397.09204180064,-5.5132604,5.7884445,6.927469,10.577899447137385
89401.6503215434,3.649185,-0.7441944,11.732429,12.309356876346438
89406.20860128617,1.40703,2.9935281,9.99757,10.530543661715173
89410.76688102893,-3.8932614,4.625491,7.6620917,9.760138346305336
89415.32516077171,4.137338,-0.25125536,10.203361,11.013140818063379
89419.88344051447,1.3472073,2.3211207,10.215324,10.561979607919994
89424.44172025724,-6.197632,4.900676,8.561825,11.65041265342241
89429.0,3.9626558,-0.18425392,9.923389,10.686919094932366
89433.09204180064,3.3189635,1.586498,10.306255,10.943097675857658
89437.6503215434,-6.403422,5.1758604,9.420879,12.51184659924398
89442.20860128617,2.5484471,0.5336185,7.865489,8.285242816849827
89446.76688102893,2.8044882,1.8210031,12.007613,12.46450866708824
89451.32516077171,-4.1110163,3.3404996,8.578575,10.082229000924888
89455.88344051447,0.442688,2.3139422,7.260083,7.632765313906477
89460.44172025724,4.529775,-0.13878867,13.271069,14.02353009225232
89465.0,-4.948534,4.625491,8.59054,10.939859836023357
89469.09204180064,-0.040679436,2.3737648,6.202418,6.641265179840082
89473.6503215434,6.0516644,0.1459674,13.208853,14.529891467856844
89478.20860128617,-3.4960387,5.022714,8.714972,10.648975513094097
89482.76688102893,-0.51208234,2.471874,4.5489182,5.20240772961012
89487.32516077171,4.1804104,0.15314612,15.427078,15.984180318820957
89491.88344051447,-2.3354783,3.6874714,8.176567,9.268665066830167
89496.44172025724,-2.7997024,4.271341,4.8791394,7.063192532522323
89501.0,7.4874096,-1.3902797,15.314611,17.103551977402976
89506.09204180064,-2.1225095,3.723365,8.79633,9.78488195992753
89510.6503215434,-2.9241338,3.2232473,4.7236004,6.42279396961633
89515.20860128617,7.9372764,-1.1797037,15.886517,17.79813135868706
89519.76688102893,-1.1581675,3.6252558,8.777187,9.566757193869764
89524.32516077171,-5.1375737,4.788209,4.8049593,8.509362069231111
89528.88344051447,8.557039,-1.5673548,16.93461,19.038396291933413
89533.44172025724,0.15314612,3.7305436,8.190925,9.001758808210594
89538.0,-4.113409,4.3048415,4.611134,7.530893088296982
89543.09204180064,9.014085,-1.5721406,16.47278,18.84350910477646
89547.6503215434,-0.6197632,4.529775,8.6455765,9.780028680533176
89552.20860128617,-4.0966587,3.933941,4.2330546,7.083590582631653
89556.76688102893,8.609683,-1.0983448,16.324419,18.488365486103334
89561.32516077171,1.5673548,3.9243693,8.640791,9.618760033265541
89565.88344051447,-5.8698034,5.6879425,4.7283864,9.4427178177505
89570.44172025724,8.937511,-1.7946811,16.073164,18.47827329857187
89575.0,1.4405307,4.83846,8.540289,9.920804406536977
89579.09204180064,-4.094266,4.3885937,4.611134,7.568706990522998
89583.6503215434,7.9300976,-0.84948236,14.230624,16.3131458540299
89588.20860128617,1.5936768,4.924605,9.404129,10.734485660595212
89592.76688102893,-2.7039862,4.321592,4.462774,6.7752528040900755
89597.32516077171,8.748472,-0.9093051,14.240196,16.73755598102919
89601.88344051447,3.201711,4.020086,9.368236,10.68531190591145
89606.44172025724,-6.11388,4.91264,6.3124914,10.067825390772029
89611.0,7.262476,-1.5147108,13.716149,15.593929903921385
89616.09204180064,3.6061125,3.565433,9.473523,10.745417528959694
89620.6503215434,-3.7807949,3.771223,6.250276,8.2208565896609
89625.20860128617,5.6903353,-0.019143265,12.333048,13.58250180420842
89629.76688102893,4.395772,2.553233,10.189003,11.386728782327346
89634.32516077171,-4.7236004,4.431666,6.276598,9.0192985718425
89638.88344051447,6.7838945,-1.0457008,12.127258,13.93503144412724
89643.44172025724,5.6879425,2.7733805,9.128944,11.10774269760614
89648.0,-6.121059,5.757337,6.9585767,10.91036581892802
89652.09204180064,5.0322857,-0.83991075,11.497924,12.579014498130052
89656.6503215434,4.6470275,3.0126712,9.363449,10.878659362286635
89661.20860128617,-3.8621538,4.1062303,7.056686,9.031842367650608
89665.76688102893,5.0083566,-0.4402951,11.019341,12.112116730040567
89670.32516077171,5.285934,2.471874,9.461558,11.116309599484714
89674.88344051447,-5.3768644,4.922212,7.934883,10.775027144866984
89679.44172025724,5.601798,-1.3376356,11.182059,12.578070333348926
89684.0,7.087794,2.184725,9.260554,11.864556776339224
89689.09204180064,-4.8312817,4.7451367,8.308177,10.718367890204682
89693.6503215434,3.0389934,-0.24646953,9.810924,10.2737752480886
89698.20860128617,6.300527,2.3665862,9.9927845,12.047950563610382
89702.76688102893,-3.6348274,3.7042217,8.035385,9.56559672622501
89707.32516077171,3.2184613,-0.24886245,9.67692,10.201137502505183
89711.88344051447,7.961205,0.57669085,10.0430355,12.82871464499694
89716.44172025724,-6.3053126,5.3816504,8.810688,12.097410923205135
89721.0,2.5101607,-0.83751786,9.739136,10.092230324964818
89725.09204180064,8.286641,1.5003533,9.8922825,12.991409936858592
89729.6503215434,-4.402951,4.400558,8.889653,10.852502876303419
89734.20860128617,0.22971918,0.7968384,9.205518,9.242796329342026
89738.76688102893,7.6716633,0.46901,10.959519,13.386016766761795
89743.32516077171,-3.5319324,4.407737,8.48286,10.191251430464208
89747.88344051447,0.28954187,0.33740005,9.236626,9.24732032277995
89752.44172025724,8.420644,0.17707519,10.047821,13.110961362375017
89757.0,-4.850425,5.7358007,9.090658,11.792628851265926
89761.09204180064,0.55754757,0.40440148,8.401501,8.429686761845906
89765.6503215434,9.114587,0.3613291,10.325398,13.777521502704316
89770.20860128617,-2.3330853,4.711636,9.552489,10.903799654647598
89774.76688102893,-1.2825987,1.4907818,8.001884,8.240002266377658
89779.32516077171,8.34407,-0.39722276,10.818337,13.668127360085983
89783.88344051447,-2.2924058,5.5300107,9.98082,11.6384238866948
89788.44172025724,0.43311638,1.0313433,7.4060507,7.490049784350547
89793.0,9.995177,-0.4785816,9.6912775,13.930307361691407
89798.09204180064,-2.9743848,6.09713,10.906875,12.844527295350188
89802.6503215434,-0.9404129,2.1057591,6.384279,6.788049510688635
89807.20860128617,10.126787,-0.8734115,10.545546,14.646610632833019
89811.76688102893,1.0815945,4.8336744,10.937983,12.007236442076694
89816.32516077171,-2.706379,3.2328188,6.3483853,7.620866132043689
89820.88344051447,8.846581,-0.9667349,10.488116,13.754895455287729
89825.44172025724,1.1820966,5.573083,12.134437,13.405266420462876
89830.0,-0.16032484,2.0411506,5.604191,5.96648611753035
89835.09204180064,10.622119,-0.84708947,9.370628,14.189983852518292
89839.6503215434,1.4883888,5.0897155,13.306962,14.324655066016414
89844.20860128617,-2.0339718,3.3476784,5.498903,6.751438821201804
89848.76688102893,10.562296,-1.3113136,9.880318,14.522476508167777
89853.32516077171,4.714029,4.3790216,12.823594,14.347210971577143
89857.88344051447,-2.1272953,4.058372,6.307706,7.796340395738381
89862.44172025724,10.205753,-1.6008555,8.214853,13.198634112683715
89867.0,3.1394954,5.7429795,13.60129,15.094149017687
89871.09204180064,-0.6125845,3.1371026,6.6283555,7.358788563815872
89875.6503215434,10.162681,-0.87580436,7.1978674,12.484246612941396
89880.20860128617,5.654442,4.288091,13.783151,15.502763954999962
89884.76688102893,-2.2038684,5.1399665,6.819788,8.81962583733487
89889.32516077171,9.152873,-0.911698,7.4634805,11.845244555145886
89893.88344051447,7.6884136,3.5510757,13.938689,16.309779071174336
89898.44172025724,-1.4644598,4.83846,6.7025356,8.395196313766784
89903.0,7.84156,-1.0433079,6.4608517,10.213773019662973
89908.09204180064,4.527382,4.836067,14.390949,15.842479128059914
89912.6503215434,-0.4977249,4.343128,6.8532887,8.12884105552641
89917.20860128617,7.0782223,-0.4091873,6.2311325,9.439050662394754
89921.76688102893,7.7147355,2.495803,14.328733,16.463862421529715
89926.32516077171,-3.0629225,5.5611186,7.386907,9.740324909925809
89930.88344051447,5.3266134,-0.885376,6.568533,8.503077486799974
89935.44172025724,8.781973,2.7207365,14.343091,17.036716711545164
89940.0,-1.5147108,4.867175,7.7147355,9.246668866311904
89944.09204180064,4.039229,-0.63412064,5.673585,6.993357323399113
89948.6503215434,5.443866,3.5008245,14.5393095,15.914866318714289
89953.20860128617,-1.8401463,4.955713,7.70995,9.34818478348993
89957.76688102893,3.5773976,-0.028714897,6.4441013,7.370552197661799
89962.32516077171,9.779816,1.3496002,13.531896,16.750475546936332
89966.88344051447,-4.189982,6.2885623,8.006671,11.00948434140066
89971.44172025724,1.509925,-0.27757734,6.7599654,6.932103208587105
89976.0,8.837009,2.656128,13.2016735,16.106890675082738
89980.09204180064,-1.4883888,4.8264956,8.856153,10.1951854792443
89984.6503215434,0.43550926,0.14357449,6.374707,6.391179178021338
89989.20860128617,6.8293595,2.6465564,12.711128,14.670282444145554
89993.76688102893,-2.837989,5.8004093,9.387379,11.39393760301014
89998.32516077171,0.54079723,0.39961565,6.850896,6.883816551486289
90002.88344051447,10.026285,1.7348584,10.708263,14.771696620444267
90007.44172025724,-3.8190813,7.212225,9.722385,12.693555117257722
90012.0,-0.7394086,0.6460852,6.5972476,6.669919569164141
90017.09204180064,7.6716633,3.6826856,10.054999,13.172683701775247
90021.6503215434,-0.9284483,5.659228,10.30147,11.790214669914068
90026.20860128617,-1.7396442,1.8592896,6.539818,7.018015334294005
90030.76688102893,7.9205256,2.5077677,9.418487,12.559121067438902
90035.32516077171,-3.3117847,6.84611,10.99302,13.367259582713807
90039.88344051447,-1.3831009,1.2060257,7.5663753,7.785724196829181
90044.44172025724,10.514439,0.9739136,8.32732,13.447906661164255
90049.0,-3.0748868,6.826967,11.5218525,13.741014965556928
90053.09204180064,-4.0224786,2.0937946,7.647734,8.891127332864102
90057.6503215434,6.6020336,3.5750046,8.068886,11.02154375877291
90062.20860128617,-0.39961565,5.372079,12.112901,13.256745305155672
90066.76688102893,-3.5486827,2.861918,7.70995,8.956955540053958
90071.32516077171,8.667113,0.93802,6.6235695,10.94853424877044
90075.88344051447,-3.541504,7.2481184,12.964776,15.26967215275464
90080.44172025724,-2.9241338,2.4144442,8.466109,9.276588859871772
90085.0,9.028442,1.5410328,5.3768644,10.620650536291418
90090.09204180064,-0.9858781,5.503689,13.491216,14.603953485116167
90094.6503215434,-5.771694,3.9817991,8.435001,10.968884062309975
90099.20860128617,5.939198,2.4599094,5.283541,8.321119674544608
90103.76688102893,1.0193789,4.4675593,14.345484,15.059586004769113
90108.32516077171,-4.419701,4.448416,8.478073,10.545135543547365
90112.88344051447,7.2792263,0.95955616,3.699436,8.221539409922064
90117.44172025724,-1.9597918,5.865018,15.338541,16.538139558256006
90122.0,-4.1110163,4.2067323,8.89444,10.66340070410603
90127.09204180064,6.5996404,1.7061435,3.278284,7.563949037147224
90131.6503215434,3.2950344,2.1799393,15.508437,16.00378096675398
90136.20860128617,-6.618784,6.5996404,8.959048,12.947126944394736
90140.76688102893,3.8095098,1.7994668,4.2545905,5.9876527958197885
90145.32516077171,3.8214743,2.2493336,15.013105,15.654280220140256
90149.88344051447,-3.8406174,5.821945,9.418487,11.719781694441957
90154.44172025724,3.2423904,1.4859959,3.5032175,4.999381179019581
90159.0,1.6606783,3.2830698,14.599133,15.055599758211292
90163.09204180064,-3.9171906,5.527618,10.12918,12.186026030788396
90167.6503215434,2.0507221,1.6965718,4.527382,5.251762064098835
90172.20860128617,7.5831256,-0.82076746,13.658719,15.644106168449866
90176.76688102893,-6.1497736,7.3031554,10.4857235,14.181191467794882
90181.32516077171,-0.39961565,1.3089207,6.063629,6.21615336975001
90185.88344051447,7.054293,0.47618872,11.887967,13.83161468592851
90190.44172025724,-1.7324655,5.0849295,11.127023,12.355912980075146
90195.0,-1.9932925,1.9310769,6.750394,7.298636320540013
90199.09204180064,5.7429795,0.6939433,10.054999,11.600274812737677
90203.6503215434,-2.730308,5.5515466,12.347405,13.810599612647547
90208.20860128617,-2.3450499,2.4120514,8.042564,8.717802858738432
90212.76688102893,9.739136,-1.328064,6.5541754,11.814048382690718
90217.32516077171,-3.7664373,6.477602,13.194495,15.17366389209476
90221.88344051447,-4.4460235,2.6154485,9.47113,10.784711368210301
90226.44172025724,7.5568037,0.4737958,4.8456388,8.989437134798639
90231.0,1.9167194,2.0196145,14.642204,14.904589694606242
90236.09204180064,-6.587676,4.687707,9.767851,12.680023073994228
90240.6503215434,5.821945,0.69155043,3.9913707,7.092554239840305
90245.20860128617,0.8877689,3.2663195,14.98439,15.361930880198212
90249.76688102893,-3.9722273,4.4364514,10.720228,12.263114576624131
90254.32516077171,6.1234517,0.5288327,1.899969,6.433211246942166
90258.88344051447,0.77530223,3.3404996,14.4412,14.84278574141132
90263.44172025724,-5.1423593,5.434294,11.631927,13.830297761872718
90268.0,3.1394954,1.9813279,2.187118,4.308779033538801
90272.09204180064,6.116273,-0.2967206,13.704185,15.010047469585777
90276.6503215434,-5.6831565,6.762358,11.706106,14.664947023664704
90281.20860128617,1.0911661,1.301742,3.8095098,4.171035915530966
90285.76688102893,4.213911,0.77290934,12.309119,13.033374287571935
90290.32516077171,-2.234976,4.979642,12.493373,13.633646653990597
90294.88344051447,-0.6197632,1.5434257,5.8123736,6.045655976109763
90299.44172025724,5.1160374,-0.16271774,10.294291,11.496640506417101
90304.0,-3.6228628,5.9559484,13.283032,15.001246459015013
90308.09204180064,-1.6965718,2.1751535,7.817631,8.290054467449446
90312.6503215434,9.217482,-1.6463208,6.9035397,11.633194186736192
90317.20860128617,-3.0294216,6.042093,13.574967,15.164564355835763
90321.76688102893,-3.4290373,2.5963054,9.459166,10.391098110903219
90326.32516077171,6.482388,0.16511066,4.7044573,8.011275441533197
90330.88344051447,1.6343563,3.3428926,14.151658,14.632685180767352
90335.44172025724,-4.8887115,4.6757426,10.533582,12.518722728074579
90340.0,6.0755935,-0.06460852,3.0820656,6.812939086826052
90345.09204180064,0.35415038,4.182803,14.261732,14.866682988087396
90349.6503215434,-2.837989,4.4412374,11.689356,12.822629016781846
90354.20860128617,6.369921,0.234505,1.1868824,6.4837933320468935
90358.76688102893,1.8042527,2.6441634,14.142087,14.499846640807132
90363.32516077171,-4.819317,5.757337,12.579518,14.649812926804971
90367.88344051447,3.0605295,1.7109293,1.9597918,4.0168275777429105
90372.44172025724,6.561354,-0.7322299,13.462501,14.994214221317868
90377.0,-4.580026,6.8389316,12.488587,14.957019383778427
90382.09204180064,1.7133222,1.304135,3.3404996,3.9743148638272228
90386.6503215434,4.761887,0.43311638,11.804215,12.735880392246871
90391.20860128617,-0.8877689,5.3816504,13.015027,14.111740589252495
90395.76688102893,-0.677193,2.9839563,4.630277,5.549959518436841
90400.32516077171,5.989449,-0.64369226,9.739136,11.451576706972752
90404.88344051447,-2.2445478,6.0229497,13.668291,15.10417481280907
90409.44172025724,-1.014593,2.8834543,7.2265825,7.846477062041521
90414.0,9.17441,-2.2277975,6.8078237,11.639559445244823
90418.09204180064,-1.8736471,5.130395,13.842974,14.881513211902861
90422.6503215434,-4.4388447,3.9243693,10.155502,11.75747581522091
90427.20860128617,5.807588,-0.19861138,4.3790216,7.27621845681368
90431.76688102893,2.9767776,1.9454343,13.89801,14.345752035204645
90436.32516077171,-5.6616206,5.8698034,11.234703,13.88261831468419
90440.88344051447,5.29072,0.31347096,2.3881223,5.81318417744704
90445.44172025724,2.110545,1.6893932,14.156445,14.412265075943345
90450.0,-2.9337053,5.1950035,11.978898,13.382402080593167
90455.09204180064,4.453202,1.8018597,1.14381,4.938219086612915
90459.6503215434,4.051193,0.040679436,13.764008,14.347882623015366
90464.20860128617,-4.6996713,6.482388,12.433551,14.788558245487918
90468.76688102893,0.8901618,3.0748868,2.6752713,4.171857307195102
90473.32516077171,8.786758,-3.0078855,12.481409,15.557636772882804
90477.88344051447,-3.646792,6.0397,12.0794,13.988887459024895
90482.44172025724,-2.0363648,3.35725,5.278755,6.578994110895985
90487.0,6.975327,-2.2924058,11.311276,13.485372662888432
90491.09204180064,0.5647263,2.6178415,12.4168005,12.702320440369713
90495.6503215434,-4.716422,4.6518135,7.965991,10.360551043885033
90500.20860128617,7.810452,-2.6992004,9.114587,12.30302968476599
90504.76688102893,-1.0959519,2.2469406,13.448143,13.67853803502008
90509.32516077171,-4.886318,4.544132,9.667349,11.746611252542113
90513.88344051447,9.128944,-1.6582853,5.6855497,10.881773940056933
90518.44172025724,1.2323477,0.3517575,13.613255,13.673446013625334
90523.0,-6.5781045,5.809981,10.088501,13.37180580401474
90527.09204180064,5.3074703,1.5147108,3.5103962,6.541136848743739
90531.6503215434,6.750394,-2.759023,14.307198,16.058516173076796
90536.20860128617,-6.6786065,6.716893,9.588383,13.478038615094567
90540.76688102893,1.4285661,3.6037195,2.864311,4.819945315195024
90545.32516077171,5.314649,-2.237369,15.175823,16.234436170150506
90549.88344051447,-2.3498356,4.115802,9.583597,10.691439795866614
90554.44172025724,-1.0696299,4.139731,4.036836,5.880265790441026
90559.0,5.881768,-2.658521,15.506044,16.795842617838527
90564.09204180064,-5.15911,4.608741,9.830067,12.020279814616213
90568.6503215434,-3.5606472,4.4340587,6.898754,8.940463734640923
90573.20860128617,10.715443,-3.8477962,13.237568,17.460225108445982
90577.76688102893,-4.4125223,3.8621538,9.913818,11.51826255821492
90582.32516077171,-6.8078237,5.4271154,8.016242,11.834702400050576
90586.88344051447,8.624041,-1.3113136,11.27299,14.253909290693763
90591.44172025724,0.96434194,0.72744405,10.617333,10.685826606117674
90596.0,-8.509181,7.2648687,7.623805,13.539087162620149
90600.09204180064,6.5781045,0.72505116,8.571397,10.828942909127676
90604.6503215434,1.0337363,0.78248096,12.328262,12.396246654989737
90609.20860128617,-6.412994,5.5132604,7.736272,11.46178156920765
90613.76688102893,4.637456,2.1679747,6.0492716,7.924632442097403
90618.32516077171,1.9478272,-1.1581675,15.204538,15.372487064641168
90622.88344051447,-7.994706,5.2428617,8.102386,12.532022252005415
90627.44172025724,0.30868515,4.3335567,5.4797597,6.9930513056668975
90632.0,6.350778,-3.9674416,16.441671,18.066585713048703
90636.09204180064,-8.315355,5.666406,8.135887,12.940090533285693
90640.6503215434,-2.0698655,3.9004402,5.2021823,6.823523842143411
90645.20860128617,6.4728165,-3.1945324,16.542173,18.048431462574552
90649.76688102893,-5.355328,3.8860826,8.38475,10.681067761422861
90654.32516077171,-4.76428,4.5202036,5.7358007,8.719519148093744
90658.88344051447,7.5352674,-3.6013267,15.553903,17.654282973914423
90663.44172025724,-6.401029,3.8860826,9.270126,11.916796813269064
90668.0,-6.99447,4.3120203,7.5950904,11.189348856510117
90673.09204180064,10.229682,-4.2019467,12.8594885,16.960813493827388
90677.6503215434,-4.8336744,2.3115492,11.016949,12.250748270119544
90682.20860128617,-9.033228,3.1969252,7.970777,12.464061329201972
90686.76688102893,7.130866,-1.0385221,10.602976,12.819940644118459
90691.32516077171,-0.22014755,-0.3230426,12.136829,12.143123141944447
90695.88344051447,-10.081322,4.742744,8.944691,14.287553009619982
90700.44172025724,6.5757113,-1.6319634,8.269891,10.690855007517792
90705.0,-0.5072965,0.17468229,12.775736,12.78699706667081
90710.09204180064,-9.571632,4.757101,9.664956,14.410326975803185
90714.6503215434,5.960734,-0.045465253,5.1208234,7.858450814376452
90719.20860128617,1.2969562,-0.46183127,14.204303,14.270865678804395
90723.76688102893,-10.65562,4.2521977,9.54531,14.924354788746658
90728.32516077171,3.0629225,1.4907818,4.7953877,5.882148230836144
90732.88344051447,5.4295087,-2.3474429,14.646991,15.796341293040522
90737.44172025724,-9.86596,4.493881,10.0932865,14.812378793929192
90742.0,1.899969,1.1916683,3.7329366,4.354856047885561
90746.09204180064,3.5462897,-0.80162424,15.94634,16.355565763802904
90750.6503215434,-7.7195215,3.3261423,9.786994,12.901142830960655
90755.20860128617,0.74658734,2.3785505,3.1993182,4.055925551850004
90759.76688102893,4.967677,-2.4311945,16.271774,17.18601613464375
90764.32516077171,-9.1480875,3.7664373,9.944926,14.027655113666132
90768.88344051447,0.87580436,1.7133222,3.3716075,3.8820411347722863
90773.44172025724,6.4799953,-2.3641932,16.07795,17.495148606898095
90778.0,-8.837009,3.9722273,10.445044,14.246763209616502
90783.09204180064,0.21296883,1.4429235,2.4981961,2.892813112432089
90787.6503215434,3.9004402,-0.64129937,16.549353,17.014869478028544
90792.20860128617,-6.381886,2.5412683,9.842031,12.002170124379253
90796.76688102893,0.75855184,1.9430413,3.022243,3.6721605545675797
90801.32516077171,5.23329,-2.0650797,16.544567,17.47496997447896
90805.88344051447,-9.093051,4.3407354,9.380199,13.766397262211168
90810.44172025724,0.2656128,1.8210031,4.03205,4.432158577063038
90815.0,7.530482,-1.7300725,15.513223,17.330937593082183
90819.09204180064,-7.2002606,3.5343254,9.511809,12.442255390140426
90823.6503215434,0.5312256,1.4955676,3.1490672,3.5264071396225596
90828.20860128617,3.988978,-0.650871,16.683355,17.165952132030135
90832.76688102893,-5.8004093,2.4072654,8.98537,10.962506501273495
90837.32516077171,1.8784329,0.9954498,4.08948,4.609042973820319
90841.88344051447,4.242626,-0.75615895,15.585011,16.169855274666563
90846.44172025724,-7.7984877,3.5462897,9.13373,12.52268360840748
90851.0,3.7425082,-0.5312256,4.8815327,6.173971960280666
90855.09204180064,3.7353296,-0.07418015,14.486666,14.960671165119772
90859.6503215434,-5.977484,2.5604117,8.49961,10.701840645227946
90864.20860128617,3.8430104,0.16989647,5.106466,6.3932455571628575
90868.76688102893,2.7015932,0.36372203,14.924568,15.17147420391366
90873.32516077171,-6.226347,2.553233,7.63577,10.177985026988297
90877.88344051447,5.8243384,-0.34457877,7.2241898,9.286041707470051
90882.44172025724,4.2904844,-0.31825677,13.775971,14.432148861175705
90887.0,-8.155031,3.1993182,7.6716633,11.644508806488108
90892.09204180064,4.618313,-0.12443122,8.102386,9.327001500347025
90896.6503215434,3.8645465,0.24886245,13.125101,13.68447764548882
90901.20860128617,-6.166524,2.5867336,6.326849,9.205771408673256
90905.76688102893,4.453202,1.40703,9.516596,10.600770769190323
90910.32516077171,5.7860518,-1.433352,12.847524,14.16304226918649
90914.88344051447,-8.415857,3.0342073,6.1282377,10.84381668470671
90919.44172025724,5.5826545,0.30389932,11.296919,12.604712013990154
90924.0,6.769537,-0.7059079,11.856859,13.671504763687587
90928.09204180064,-7.5879116,3.2328188,6.1378093,10.281061367690327
90932.6503215434,5.865018,0.22971918,10.394793,11.937459049346844
90937.20860128617,3.381179,1.6176059,11.440494,12.03885057809888
90941.76688102893,-4.036836,1.3567789,5.675978,7.096028475905745
90946.32516077171,11.217953,-1.1820966,11.885574,16.386173781313822
90950.88344051447,1.4142087,1.5553902,10.232075,10.4457926327798
90955.44172025724,-8.205282,4.4914885,6.164131,11.202527957131696
90960.0,11.12463,-1.6941789,14.213874,18.12903331316872
90965.09204180064,4.0607653,0.9667349,9.356271,10.24520366874193
90969.6503215434,-6.999256,3.4577522,5.0586076,9.302426870495601
90974.20860128617,9.698457,-0.3326142,14.5895605,17.522156715714274
90978.76688102893,1.4046371,2.029186,9.461558,9.77812256993419
90983.32516077171,-5.4797597,2.7805593,4.8217096,7.810772039772556
90987.88344051447,13.299783,-2.3139422,16.266989,21.138909325652325
90992.44172025724,0.6795859,1.586498,8.155031,8.335666950547136
90997.0,-7.705164,4.6207056,5.984663,10.795214853458747
91002.09204180064,13.900403,-3.852582,16.642675,22.023674143629123
91006.6503215434,-2.4838386,3.017457,7.5950904,8.541656696558995
91011.20860128617,-6.4488873,4.225876,5.8363028,9.669984785343003
91015.76688102893,15.386399,-3.35725,16.664211,22.92833029250543
91020.32516077171,-2.1942968,2.4168372,7.891811,8.540299840024066
91024.88344051447,-7.1978674,4.76428,5.386436,10.174544304708627
91029.44172025724,11.313669,-3.0437791,17.367727,20.94997944146215
91034.0,-0.6580497,2.0555081,7.161974,7.48010792258452
91038.09204180064,-3.8573678,4.6661706,5.62812,8.266085479063303
91042.6503215434,10.110037,-2.8044882,15.580225,18.783541020157337
91047.20860128617,-4.3120203,3.567826,8.107173,9.851352977424831
91051.76688102893,-0.71787244,2.318728,5.503689,6.015183537251091
91056.32516077171,8.47568,-1.4501023,14.544095,16.89587664230212
91060.88344051447,-3.7114005,2.9025974,8.140674,9.405856607038139
91065.44172025724,-0.2368979,2.6633067,6.7767158,7.285135566841494
91070.0,6.800645,-2.1033661,13.038957,14.855548492549953
91074.09204180064,-4.9772487,3.6228628,8.080851,10.15865603185168
91078.6503215434,2.9504557,1.0002356,7.860703,8.455549168881868
91083.20860128617,6.793466,-0.3278284,11.27299,13.165825279605626
91087.76688102893,-5.9870563,4.082301,8.652756,11.286284197622647
91092.32516077171,5.5371895,-0.10050214,7.8439527,9.601987408807206
91096.88344051447,3.5558615,0.5934412,10.945162,11.523579941636353
91101.44172025724,-4.7044573,3.7807949,7.6118407,9.714239414671939
91106.0,6.637927,0.8255533,9.160052,11.342405642154308
91111.09204180064,3.1682103,0.4115802,9.557275,10.077125591739103
91115.6503215434,-6.917897,5.5012956,7.7123427,11.730378600174491
91120.20860128617,10.086107,-1.588891,10.911661,14.943844043760997
91124.76688102893,3.7257578,1.1031306,8.784366,9.605376324063165
91129.32516077171,-7.2265825,5.329006,7.5639825,11.740342023878542
91133.88344051447,10.215324,-0.77530223,11.284955,15.241527066696564
91138.44172025724,0.7322299,1.8712541,9.255769,9.471378585748848
91143.0,-6.0564504,4.5537043,6.2335258,9.811914094546704
91147.09204180064,11.526638,-0.81119585,13.464894,17.743302756852717
91151.6503215434,2.3067634,0.7992313,8.729329,9.064276741401944
91156.20860128617,-8.336892,6.0779867,6.8891826,12.405906957622392
91160.76688102893,12.270833,-2.2182257,14.189945,18.890431622201078
91165.32516077171,1.3089207,2.00765,8.758043,9.080046757106349
91169.88344051447,-6.1497736,5.2691836,5.984663,10.06976674830827
91174.44172025724,12.526874,-1.2203832,14.240196,19.005133240394137
91179.0,-1.0241647,2.2014754,8.765223,9.095303266481018
91183.09204180064,-6.7288575,5.5012956,5.7501583,10.421424903003643
91187.6503215434,13.062885,-2.833203,15.357684,20.35987381115831
91192.20860128617,0.16271774,2.2254045,8.279462,8.574869868457187
91196.76688102893,-6.9968634,6.7049284,6.0875583,11.444235594537759
91201.32516077171,12.177509,-2.7231295,15.252397,19.70641453853187
91205.88344051447,-3.0796728,3.409894,8.19571,9.395819498606592
91210.44172025724,-4.6709566,4.78103,5.6137624,8.728711915491159
91215.0,12.074615,-2.1895108,15.096857,19.45521462796005
91220.09204180064,-3.0342073,3.0389934,8.47568,9.501528628963703
91224.6503215434,-6.0684147,5.6807637,6.590069,10.60781516671434
91229.20860128617,9.920997,-2.8810613,15.429471,18.56866368450373
91233.76688102893,-3.3237493,2.6896286,7.5113387,8.643009920236477
91238.32516077171,-3.699436,4.532168,8.150245,10.032590246708224
91242.88344051447,10.662799,-2.6369848,13.775971,17.618920180949598
91247.44172025724,-5.879375,4.22109,7.65252,10.533077115882376
91252.0,-0.8040171,2.7374868,8.49961,8.965692813685212
91257.09204180064,7.5400534,-1.1342385,12.933668,15.013949186804844
91261.6503215434,-4.544132,3.8860826,6.066022,8.517475947246975
91266.20860128617,2.2804415,2.4934103,9.39695,9.985999081792885
91270.76688102893,4.8576035,-0.82076746,11.485959,12.497888827169493
91275.32516077171,-5.7453723,4.9604983,5.8937325,9.609991104650744
91279.88344051447,5.879375,0.25604117,11.313669,12.752713974402507
91284.44172025724,5.565904,-0.105287954,10.215324,11.633710384716027
91289.0,-6.2837768,5.3744717,5.9248405,10.172243207707893
91293.09204180064,6.6355343,0.30389932,12.060257,13.768531844362418
91297.6503215434,3.2830698,0.7992313,9.789387,10.356129384009295
91302.20860128617,-4.249805,4.3622713,5.0442505,7.907889512352771
91306.76688102893,9.270126,-0.5264398,13.649148,16.50792585532186
91311.32516077171,2.5604117,0.99305683,9.033228,9.441455292543122
91315.88344051447,-6.9657555,6.556568,5.6687994,11.119605220593249
91320.44172025724,9.327556,-1.7037506,14.998748,17.74453461231487
91325.0,1.562569,2.2493336,8.49961,8.929977249464299
91330.09204180064,-4.6996713,5.6400843,5.4079723,9.118312652937355
91334.6503215434,9.731957,-1.4620669,14.508202,17.53101685421381
91339.20860128617,0.16271774,2.9289196,9.229446,9.684406050609962
91343.76688102893,-4.8025665,5.5563326,6.2167754,9.62215014031636
91348.32516077171,9.6410265,-2.833203,15.491687,18.465340433332937
91352.88344051447,1.2036327,2.0746512,8.274676,8.615287121341153
91357.44172025724,-5.673585,5.989449,7.492195,11.144328243274737
91362.0,7.3893003,-2.5675905,14.637419,16.59663564945713
91366.09204180064,-0.84948236,3.122745,8.021028,8.64928013141904
91370.6503215434,-3.101209,4.407737,7.135652,8.942212935730954
91375.20860128617,8.734115,-2.2445478,13.019813,15.83787517991851
91379.76688102893,-0.51208234,3.7305436,8.420644,9.224230550521645
91384.32516077171,-3.3931437,5.678371,7.367764,9.901579052968607
91388.88344051447,6.9705415,-2.4838386,13.259104,15.184259674968953
91393.44172025724,0.0598227,3.7425082,7.965991,8.80153162776704
91398.0,-3.0581365,4.9820347,8.473288,10.294147761499266
91403.09204180064,7.42998,-2.629806,11.935825,14.30330034742545
91407.6503215434,-2.0722585,4.83846,9.076301,10.492101329334524
91412.20860128617,-0.2392908,3.3117847,8.171782,8.820612169324912
91416.76688102893,7.6644845,-2.3139422,11.337599,13.879474134147955
91421.32516077171,-0.77530223,4.6757426,8.966227,10.14183854263253
91425.88344051447,-1.380708,4.1612673,8.667113,9.712947435154907
91430.44172025724,5.4534373,-2.6106627,11.674998,13.147665816341949
91435.0,-0.66283554,4.5728474,8.597719,9.760689335274165
91439.09204180064,0.39722276,3.6802926,8.7389,9.490559138042224
91443.6503215434,7.31512,-2.8260245,10.571868,13.162894366301975
91448.20860128617,-1.4213874,5.484545,9.021263,10.652875767278653
91452.76688102893,0.107680865,3.95787,8.348856,9.240115075816055
91457.32516077171,5.75973,-2.3354783,11.045664,12.674211682134985
91461.88344051447,1.4979604,4.950927,8.61447,10.048117082329265
91466.44172025724,-0.40440148,5.4247227,8.083243,9.743201441311294
91471.0,4.6207056,-2.0555081,10.763301,11.89221098903135
91475.09204180064,0.27757734,5.7142644,9.083479,10.734964255004757
91479.6503215434,0.911698,4.7594943,8.006671,9.358993521590744
91484.20860128617,6.5852833,-2.005257,10.150716,12.264748146210092
91488.76688102893,0.75855184,5.068179,9.906639,11.153624323345726
91493.32516077171,-1.1988469,5.977484,8.413465,10.390088650541948
91497.88344051447,5.9511623,-2.4479449,11.612783,13.276501646121478
91502.44172025724,4.1995535,2.9576344,9.0475855,10.403973001850584
91507.0,-1.6774286,6.568533,8.624041,10.969661601429097
91512.09204180064,6.590069,-3.0820656,11.296919,13.43683432509404
91516.6503215434,3.0964231,3.6085055,9.334735,10.475992815860884
91521.20860128617,-0.23211208,5.5946193,8.229211,9.95356995314422
91525.76688102893,6.64032,-2.7949166,11.375885,13.465369212783605
91530.32516077171,5.022714,2.3282995,9.217482,10.752237390786172
91534.88344051447,-2.0267932,6.738429,8.45893,11.003081968635298
91539.44172025724,4.6757426,-2.8690968,12.402443,13.561521952844158
91544.0,6.669035,2.0722585,8.128709,10.71663161299894
91549.09204180064,-1.067237,6.774323,8.827438,11.178287371790994
91553.6503215434,4.479524,-2.3235137,10.760908,11.885368827475558
91558.20860128617,5.206968,3.1418884,8.174174,10.188282438829155
91562.76688102893,-0.09810923,6.3100986,9.26534,11.210419041156898
91567.32516077171,4.5202036,-1.5960697,10.957127,11.959862506184596
91571.88344051447,7.9253116,1.9813279,6.872432,10.675511500580988
91576.44172025724,-2.4168372,8.056922,10.157895,13.188552801441592
91581.0,3.22564,-1.1414171,11.19881,11.709864722611973
91585.09204180064,9.286877,2.471874,5.3744717,11.010957793902667
91589.6503215434,-0.43072346,7.791309,10.957127,13.45171553098728
91594.20860128617,2.6489491,-0.42833054,10.227289,10.573449705531706
91598.76688102893,7.91574,2.421623,5.515653,9.947141585306706
91603.32516077171,0.2943277,6.9107184,11.569711,13.479720702692873
91607.88344051447,2.21344,0.24886245,10.270362,10.509119124059067
91612.44172025724,10.526402,0.7513731,3.9004402,11.25091704505831
91617.0,-1.4931747,8.068886,13.007849,15.379877358825626
91622.09204180064,1.3519931,0.42833054,10.150716,10.24931157232525
91626.6503215434,9.456773,1.2060257,3.8884757,10.29588737467927
91631.20860128617,0.7441944,6.781502,13.60129,15.216362388727976
91635.76688102893,-0.53840435,2.2995846,9.765458,10.04699649280421
91640.32516077171,6.956184,0.5623334,4.2569833,8.174755134625773
91644.88344051447,0.6819788,7.2648687,13.687434,15.510940068746482
91649.44172025724,-0.13400285,3.5558615,9.588383,10.227374850159713
91654.0,7.8319883,-0.27757734,3.9674416,8.783944601397993
91658.09204180064,-0.40200856,8.0617075,14.060728,16.21285942046786
91662.6503215434,-0.6460852,3.7616515,9.13373,9.899114698093527
91667.20860128617,6.556568,-0.3254355,5.5252247,8.58036130875468
91671.76688102893,4.661385,5.90809,13.527109,15.479557986719323
91676.32516077171,-3.0270288,6.0301285,9.605133,11.738140100979827
91680.88344051447,3.6635423,-0.8829831,6.2837768,7.327144888085204
91685.44172025724,4.8336744,5.996628,12.333048,14.540564932144258
91690.0,-0.6795859,5.3385777,9.906639,11.274029675796365
91694.09204180064,3.6539707,-1.3783151,6.4656377,7.553524029154061
91698.6503215434,4.065551,6.5709257,10.119608,12.732330327249034
91703.20860128617,-2.0961876,6.4608517,10.859017,12.808390115470235
91707.76688102893,2.2469406,-1.0241647,7.8487387,8.22802251902194
91712.32516077171,9.081086,3.9506912,6.84611,12.039240259636546
91716.88344051447,-4.010514,8.205282,12.285191,15.30806301104751
91721.44172025724,0.035893623,-1.1150951,8.430215,8.503719796679633
91726.0,7.8511314,5.1447525,4.6781354,10.487787820463158
91731.09204180064,-1.770752,6.932255,13.759221,15.508316625519676
91735.6503215434,-1.2275618,0.055036888,9.064336,9.147246807250584
91740.20860128617,8.265104,3.9961565,3.0820656,9.68402495174458
91744.76688102893,-3.3357139,7.808059,14.711599,16.985991808161664
91749.32516077171,-1.926291,0.93802,9.447201,9.687109231937152
91753.88344051447,11.65107,2.1392598,1.3400285,11.921390062304324
91758.44172025724,-3.541504,8.356035,15.6759405,18.1135496814617
91763.0,-3.5606472,1.6941789,9.411307,10.203977169531598
91767.09204180064,9.382592,3.0653152,1.0098072,9.922141930802386
91771.6503215434,0.067001425,6.2933483,16.173666,17.35506248607653
91776.20860128617,-4.524989,3.8310459,9.578811,11.265258910107162
91780.76688102893,8.549861,1.4237803,0.7609448,8.700937331726745
91785.32516077171,-1.354386,7.185903,16.369884,17.928877977605318
91789.88344051447,-3.2878556,3.1658175,10.480937,11.431641845672328
91794.44172025724,9.310805,0.571905,0.7609448,9.359337693752536
91799.0,0.11246668,6.4106007,15.888909,17.133764306165524
91803.09204180064,-6.611605,4.5967765,10.863803,13.522791519866978
91807.6503215434,6.118666,1.5051392,1.9765421,6.603804683968557
91812.20860128617,5.5395823,3.1801748,15.5347595,16.796703144958794
91816.76688102893,-6.4680305,6.070808,11.036092,14.159288645770955
91821.32516077171,5.441473,0.24168372,2.443159,5.969678829679452
91825.88344051447,2.3881223,5.568297,14.807315,15.9989261236244
91830.44172025724,-4.474738,4.4292727,11.612783,13.209786744103717
91835.0,5.204575,0.46183127,3.4505734,6.261576945256073
91840.09204180064,5.0705724,3.8334389,12.833166,14.321176901610809
91844.6503215434,-7.85831,6.97772,11.978898,15.93535722062433
91849.20860128617,2.5412683,0.42833054,5.4701877,6.046855802589713
91853.76688102893,8.569004,2.1177237,11.115058,14.193558312309204
91858.32516077171,-6.6259627,6.7216787,12.433551,15.610174141162743
91862.88344051447,1.1653463,-0.34218585,5.8985186,6.022262434451846
91867.44172025724,5.4797597,4.027264,10.346934,12.381666482981847
91872.0,-4.716422,5.1878247,12.957598,14.732871666094772
91877.09204180064,0.6484781,0.5431901,6.762358,6.815061632229133
91881.6503215434,9.621883,1.1462029,8.698221,13.02126960470823
91886.20860128617,-8.353642,7.8989897,13.211246,17.513263368583996
91890.76688102893,-1.0265576,-0.4139731,8.166995,8.241662548519344
91895.32516077171,10.567082,1.3352427,6.7360363,12.602391840343046
91899.88344051447,-4.814531,6.568533,14.003298,16.19931138656375
91904.44172025724,-2.940884,0.37568656,8.533111,9.033488940112875
91909.0,7.8630958,2.502982,6.334028,10.402552819240363
91913.09204180064,-3.8430104,5.515653,14.943711,16.386142175705608
91917.6503215434,-2.7901309,0.677193,9.162445,9.601761253874667
91922.20860128617,11.981291,-0.09093051,3.907619,12.602741314233617
91926.76688102893,-7.011221,8.559432,15.36247,18.932157314325405
91931.32516077171,-3.484074,-0.1483603,10.117215,10.70134672703941
91935.88344051447,11.438101,0.96434194,2.2469406,11.696531619389242
91940.44172025724,-1.2108115,5.494117,15.7908,16.763077006869036
91945.0,-5.726229,2.3498356,10.303863,12.020025733343394
91950.09204180064,8.72215,1.5553902,1.849718,9.050778749714304
91954.6503215434,-2.2493336,6.4536734,16.202381,17.58483869892236
91959.20860128617,-3.5726118,1.9717562,10.394793,11.167054181769993
91963.76688102893,11.957362,-0.78248096,-0.3613291,11.988383592891635
91968.32516077171,-2.943277,7.628591,16.444065,18.364791146872182
91972.88344051447,-5.675978,2.5675905,11.306491,12.909143502388346
91977.44172025724,9.370628,0.5838696,-0.42833054,9.398565841429471
91982.0,3.7879734,3.4768956,16.243061,17.03744629168726
91986.09204180064,-7.630984,4.900676,11.634319,14.751471813313849
91990.6503215434,7.181117,-0.55754757,0.16511066,7.204620891521465
91995.20860128617,2.2541194,5.0107493,15.910446,16.83243757558075
91999.76688102893,-4.8025665,4.082301,12.505338,14.004046020195993
92004.32516077171,6.4680305,-0.90691215,0.3278284,6.539524421285881
92008.88344051447,3.8980472,4.2569833,14.582382,15.683193028966734
92013.44172025724,-6.381886,5.620941,13.156209,15.665544417419971
92018.0,3.6802926,-0.31347096,2.0339718,4.216617002713588
92022.09204180064,8.91119,1.1677392,11.820966,14.849517137889455
92026.6503215434,-6.6522846,8.0617075,13.570182,17.128743612071418
92031.20860128617,1.3065279,-1.2155973,3.771223,4.172147512369943
92035.76688102893,6.738429,2.837989,9.966462,12.360864522742979
92040.32516077171,-2.574769,5.3385777,14.845602,15.985047575928645
92044.88344051447,-1.8257889,-0.18903974,6.11388,6.383476308804042
92049.44172025724,8.664721,0.5072965,7.3557997,11.377281264576055
92054.0,-5.726229,7.5209103,16.07077,18.644662471978062
92059.09204180064,-3.2184613,-0.36372203,8.621648,9.209972914759794
92063.6503215434,11.5314245,-1.2825987,3.2591407,12.051589460599729
92068.20860128617,-3.1634245,7.161974,16.525423,18.286353695387312
92072.76688102893,-5.666406,0.650871,10.01432,11.5246863331666
92077.32516077171,9.270126,0.8734115,1.354386,9.409168142891499
92081.88344051447,1.87604,3.9674416,16.889145,17.450024004626343
92086.44172025724,-6.719286,3.7185793,10.588618,13.080346612766364
92091.0,9.614705,-0.8566611,-0.39243692,9.660767423629311
92095.09204180064,-0.6795859,6.458459,16.903503,18.108062936746407
92099.6503215434,-4.78103,3.017457,12.19426,13.441103807178523
92104.20860128617,8.360821,-0.6867646,-1.9478272,8.612142835027413
92108.76688102893,3.2998202,4.0918727,16.0612,16.89953789265651
92113.32516077171,-7.348621,5.372079,13.31414,16.12847752652066
92117.88344051447,5.025107,-0.055036888,-0.6293348,5.064661065755612
92122.44172025724,8.116744,1.014593,14.307198,16.480498982991655
92127.0,-6.9155045,7.161974,14.316769,17.438117692731556
92132.09204180064,2.2852273,-1.0265576,1.1031306,2.737331079617409
92136.6503215434,5.410365,2.916955,12.012399,13.493643156703493
92141.20860128617,-3.330928,5.5371895,15.506044,16.79859962705315
92145.76688102893,-0.42593765,0.03828653,3.8430104,3.866732170008045
92150.32516077171,8.9973345,0.31825677,8.545074,12.41255836409308
92154.88344051447,-5.520439,8.322535,16.008554,18.86832363380123
92159.44172025724,-1.4405307,0.011964541,7.2792263,7.420404798560219
92164.0,10.856624,-0.7322299,3.8645465,11.547171296663624
92169.09204180064,-3.5319324,7.5879116,16.238274,18.268346707533784
92173.6503215434,-5.278755,1.1916683,10.021499,11.389283115905537
92178.20860128617,8.616862,0.09571633,1.7683591,8.796963467550919
92182.76688102893,1.6439278,3.699436,16.508673,16.99778248921423
92187.32516077171,-7.0590787,4.010514,11.9645405,14.459081714034607
92191.88344051447,8.714972,-1.0528796,-0.39722276,8.787324867895926
92196.44172025724,0.17946811,5.932019,16.223917,17.27531594622098
92201.0,-4.8336744,3.6802926,13.129887,14.467304325948186
92205.09204180064,7.575947,-0.2680057,-1.7324655,7.776132503419148
92209.6503215434,5.340971,2.7925239,14.646991,15.83851338696259
92214.20860128617,-7.4706593,7.157188,14.048763,17.44717261547525
92218.76688102893,4.1516957,0.57669085,-0.15553902,4.194441787486718
92223.32516077171,9.593168,0.023929082,12.055471,15.406616303037808
92227.88344051447,-5.754944,7.9324903,14.666134,17.63914026557661
92232.44172025724,1.4668527,0.1172525,2.6489491,3.030237008328614
92237.0,8.016242,1.3137065,9.416093,12.435785779569994
92241.09204180064,-1.9908996,5.443866,15.740549,16.77391549593109
92245.6503215434,-3.2950344,2.1440456,7.2337613,8.23295121918261
92250.20860128617,10.519224,-1.5147108,5.7310147,12.074475220953858
92254.76688102893,-4.137338,7.0447216,16.0612,18.01965076209166
92259.32516077171,-4.213911,2.1895108,11.038485,12.016619930515512
92263.88344051447,10.806373,-1.0696299,0.9164838,10.897786385030928
92268.44172025724,0.70830077,5.3218274,14.986783,15.919397022037687
92273.0,-7.0734363,4.7594943,12.835559,15.409018850153023
92278.09204180064,7.231368,-0.019143265,-0.48576033,7.247690164060586
92282.6503215434,7.056686,0.37568656,13.866902,15.563705496171682
92287.20860128617,-7.7267003,7.291191,13.795115,17.41173631743044
92291.76688102893,3.9626558,-0.19382556,0.46183127,3.9941829526115558
92296.32516077171,5.1662884,1.6702498,12.565161,13.688080259199811
92300.88344051447,-3.5989337,4.792995,14.520166,15.708607370310606
92305.44172025724,-0.8542682,1.0696299,4.453202,4.658850752418374
92310.0,8.231604,-0.8279462,9.014085,12.235134969019976
92314.09204180064,-5.4319015,6.7719297,14.965247,17.300959613225313
92318.6503215434,-3.5271466,0.8877689,9.873138,10.521775074802862
92323.20860128617,11.325634,-2.8547394,3.697043,12.251026466697287
92327.76688102893,-2.5986981,5.616155,14.644597,15.898385140993962
92332.32516077171,-7.159581,2.7973096,13.311748,15.371635433788986
92336.88344051447,7.997099,-0.4977249,0.63651353,8.037815123884977
92341.44172025724,5.106466,0.45943835,14.039192,14.946102857249134
92346.0,-8.509181,6.5924616,13.383535,17.175148335151594
92350.09204180064,6.1832747,-0.5144752,0.34218585,6.214069673170341
92354.6503215434,5.4821525,0.86623275,13.259104,14.373871924197907
92359.20860128617,-4.742744,4.9868207,13.622826,15.26248307352904
92363.76688102893,1.4022441,0.49054617,3.2519622,3.575217785130763
92368.32516077171,8.016242,-1.4261732,11.1198435,13.782054464536646
92372.88344051447,-5.281148,5.4007936,14.575203,16.416322310399305
92377.44172025724,-3.4745026,0.5814767,8.994942,9.660189700694994
92382.0,11.978898,-4.2043395,5.6879425,13.911260108594423
92387.09204180064,-3.7425082,5.55394,14.367021,15.85130624160382
92391.6503215434,-5.592226,1.3137065,12.069828,13.367107553723141
92396.20860128617,9.337128,-1.6822144,1.5577831,9.614493890090989
92400.76688102893,4.1804104,0.5934412,14.661348,15.257232014601785
92405.32516077171,-7.681235,4.50106,13.204067,15.925083911531331
92409.88344051447,6.7791085,-1.5482116,0.7130866,6.99011900558541
92414.44172025724,5.467795,0.60779864,14.295233,15.317306808740884
92419.0,-5.2380757,4.773852,13.680256,15.407027753021362
92424.09204180064,3.0270288,-1.4046371,2.3594074,4.086895156215854
92428.6503215434,5.841089,0.54797596,12.007613,13.364182291349811
92433.20860128617,-4.345521,4.9389625,14.142087,15.597292330831536
92437.76688102893,-1.2012398,-0.12203831,6.5804973,6.690352391430438
92442.32516077171,11.0289135,-3.1083877,7.243333,13.555990558896186
92446.88344051447,-4.900676,6.1043086,14.850388,16.78729378105816
92451.44172025724,-4.481917,0.4450809,9.798959,10.784492314713512
92456.0,8.652756,-1.2682413,2.6489491,9.137590148663513
92460.09204180064,0.8997334,3.0748868,15.266753,15.599301144182672
92464.6503215434,-6.8078237,3.3883579,11.655855,13.917125729467243
92469.20860128617,5.7070856,-1.6104271,1.6893932,6.16590227577019
92473.76688102893,3.7784019,0.9691278,15.55151,16.033246486309515
92478.32516077171,-6.812609,4.2593765,13.369178,15.597719383016136
92482.88344051447,2.6130557,-2.3785505,2.2804415,4.205469772483805
92487.44172025724,3.6228628,0.95955616,13.464894,13.976739724379708
92492.0,-5.2739697,4.2091255,14.175588,15.699642958265398
92497.09204180064,-1.6750357,-0.6125845,5.285934,5.578718725502366
92501.6503215434,7.5352674,-2.0866158,9.375414,12.20789121665607
92506.20860128617,-6.456066,6.3866715,15.072928,17.59725886433601
92510.76688102893,-4.027264,0.27279153,7.7937016,8.776961614042659
92515.32516077171,7.16676,-1.9047549,5.386436,9.165382311107923
92519.88344051447,-3.0605295,4.5967765,15.90566,16.837078578153708
92524.44172025724,-7.236154,3.2447834,9.126552,12.09067803861039
92529.0,4.4651666,-1.2132044,3.4075012,5.746359030719918
92533.09204180064,0.9404129,2.2971919,16.298098,16.48603850127483
92537.6503215434,-7.896597,4.924605,10.863803,14.304901055555856
92542.20860128617,3.172996,-2.3857293,1.9717562,4.432542207484654
92546.76688102893,0.6867646,1.978935,16.355526,16.489119445462034
92551.32516077171,-7.056686,4.474738,12.402443,14.954621019587526
92555.88344051447,-1.0385221,-0.2368979,3.0605295,3.240600189406751
92560.44172025724,3.4864671,-0.24886245,14.106194,14.532793761835281
92565.0,-8.7053995,6.269419,13.7664,17.452889847018493
92569.09204180064,-2.316335,-0.045465253,3.6659353,4.336652689026577
92573.6503215434,6.2287397,-1.2371335,11.634319,13.25462470766107
92578.20860128617,-7.2959766,6.2909555,14.532131,17.435315513402355
92582.76688102893,-5.9726987,1.770752,4.8719606,7.908520246824816
92587.32516077171,4.5034533,-0.6556568,10.054999,11.036937181784996
92591.88344051447,-3.4170728,4.321592,14.697242,15.695906037611458
92596.44172025724,-7.6118407,4.23784,6.944219,11.140986681068132
92601.0,5.1208234,-1.9215052,7.992313,9.684631207102498
92606.09204180064,-5.5324035,6.0181637,14.9413185,17.031405735442164
92610.6503215434,-7.181117,3.3668218,7.63577,11.009491990711663
92615.20860128617,5.235683,-0.7394086,6.9968634,8.770131070428908
92619.76688102893,-2.5843408,4.551311,13.886045,14.839659528819745
92624.32516077171,-9.743921,4.6422415,9.095444,14.114584802809443
92628.88344051447,5.8363028,-1.5841051,6.322063,8.748731331861944
92633.44172025724,0.55036885,3.1059947,13.84058,14.195483918622795
92638.0,-10.830302,5.384043,9.377807,15.304464203829614
92642.09204180064,5.051429,-1.6582853,5.472581,7.629940227799827
92646.6503215434,-0.80880296,4.1277666,13.082028,13.741618388128973
92651.20860128617,-8.255533,3.460145,9.334735,12.933047052235564
92655.76688102893,6.424958,-1.4429235,5.6305127,8.663993697682239
92660.32516077171,1.3854938,2.4335876,13.5438595,13.830331587942945
92664.88344051447,-11.304098,4.606348,9.770244,15.635176408030835
92669.44172025724,7.468266,-2.5053747,6.24549,10.05276304178389
92674.0,3.5247536,2.6609137,12.610625,13.361594685896803
92678.09204180064,-10.088501,4.4101295,9.490273,14.535899567907736
92682.6503215434,7.499374,-2.1392598,6.2335258,9.983681023702514
92687.20860128617,2.029186,3.6108983,12.1655445,12.85132893272206
92691.76688102893,-7.903775,2.8786685,8.109566,11.684239482819292
92696.32516077171,10.308648,-1.1079165,7.255297,12.654447325627668
92700.88344051447,3.8477962,3.48886,11.131808,12.283925636586963
92705.44172025724,-10.26079,4.8025665,8.523539,14.177417730163107
92710.0,11.916682,-3.2615337,8.947083,15.254350401582123
92715.09204180064,1.536247,4.8049593,9.346699,10.621133221849092
92719.6503215434,-7.7147355,3.8095098,8.92794,12.399097604053944
92724.20860128617,14.326341,-3.1275308,9.588383,17.52034771081666
92728.76688102893,-1.1916683,6.176096,9.45438,11.355594934781749
92733.32516077171,-8.609683,1.746823,8.274676,12.068483536003768
92737.88344051447,13.929118,-3.1562457,12.500552,18.98014793096715
92742.44172025724,0.5599405,4.3598785,8.973405,9.992200518020418
92747.0,-7.729093,2.266084,8.609683,11.789853971029244
92752.09204180064,12.167937,-3.2734983,14.335913,19.086458118248153
92756.6503215434,-4.2234826,5.3649,7.6884136,10.282590187650566
92761.20860128617,-3.5199678,-0.4498667,8.863332,9.547314151269441
92765.76688102893,14.757064,-3.6252558,14.405307,20.938631456706492
92770.32516077171,-5.604191,5.3960075,9.023657,11.914287194716529
92774.88344051447,-4.166053,-0.7776951,8.918368,9.874112367742073
92779.44172025724,11.368707,-2.8930259,15.293076,19.274212597449882
92784.0,-7.0136137,4.479524,7.6884136,11.329987470605104
92788.09204180064,0.5288327,-0.80641,8.7556505,8.808596754922974
92792.6503215434,13.03417,-2.5388756,11.911897,17.838967656223392
92797.20860128617,-8.88726,4.50106,9.705635,13.90835296447516
92801.76688102893,4.560883,-3.1059947,6.7312503,8.703940913021365
92806.32516077171,7.4275866,1.8784329,9.370628,12.10397546158641
92810.88344051447,-7.9013824,3.4146798,10.607761,13.660764085536313
92815.44172025724,9.69367,-2.9552414,7.542446,12.632861174891852
92820.0,4.2809124,3.82626,7.860703,9.734327312058227
92825.09204180064,-10.205753,2.8260245,11.488352,15.624533287350163
92829.6503215434,13.689827,-4.087087,9.779816,17.313591320963827
92834.20860128617,5.1136446,3.802331,6.980113,9.451405166505094
92838.76688102893,-9.574025,2.3857293,11.476387,15.134765196965315
92843.32516077171,14.106194,-3.955477,11.5314245,18.644148102350112
92847.88344051447,-2.5843408,5.541975,7.0710435,9.348366726335778
92852.44172025724,-6.066022,-0.17468229,11.045664,12.6029294216789
92857.0,15.003533,-3.390751,11.876003,19.43302966812172
92861.09204180064,-4.9030685,4.819317,9.511809,11.736285933576355
92865.6503215434,-4.113409,-0.1172525,10.090894,10.89770725745894
92870.20860128617,13.1514225,-2.9863493,12.0243635,18.06830134504207
92874.76688102893,-7.867882,4.867175,9.566847,13.308550678716221
92879.32516077171,3.8956544,-1.588891,9.179195,10.09744119379486
92883.88344051447,10.117215,0.208183,7.817631,12.78736618580523
92888.44172025724,-10.727407,4.4962745,11.66782,16.475186459503252
92893.0,7.836774,-2.5149465,7.678842,11.256313654385359
92897.09204180064,5.075358,3.5295393,6.544604,9.002707815719917
92901.6503215434,-7.9803486,1.9286839,11.761144,14.343301347750355
92906.20860128617,14.486666,-3.3237493,8.6455765,17.19467342586531
92910.76688102893,1.9406484,4.271341,6.7145,8.191152568515836
92915.32516077171,-9.94014,3.1586387,12.670448,16.411082663171303
92919.88344051447,15.802765,-5.5515466,11.301705,20.205830524980197
92924.44172025724,-1.2060257,3.986585,8.071279,9.082560357472254
92929.0,-5.9726987,1.8545038,12.543624,14.01623405764088
92934.09204180064,13.574967,-3.1466742,10.258397,17.303641136525098
92938.6503215434,-6.511103,4.618313,9.961677,12.765511579835216
92943.20860128617,-0.31107804,-1.1988469,10.806373,10.877118223672062
92947.76688102893,10.222504,-1.2395264,8.298605,13.225084448590033
92952.32516077171,-8.1622095,3.8382246,11.473994,14.59473090926898
92956.88344051447,7.142831,-1.2299547,9.162445,11.682603375816457
92961.44172025724,7.9133472,0.42833054,5.259612,9.511469358084929
92966.0,-10.495295,5.879375,12.837952,17.59350104674888
92970.09204180064,13.512752,-4.120588,7.236154,15.87248048639418
92974.6503215434,3.070101,3.9171906,5.573083,7.471891090735889
92979.20860128617,-9.119372,5.23329,13.527109,17.13280326731049
92983.76688102893,15.489294,-4.448416,8.844189,18.38277216839759
92988.32516077171,-0.48097453,4.948534,7.44673,8.953943988018057
92992.88344051447,-7.4658732,3.390751,12.86906,15.259395802785875
92997.44172025724,13.230389,-3.6946502,10.6963,17.409895659701156
93002.0,-2.4814458,4.4292727,8.231604,9.671366724621652
93007.09204180064,-4.692493,3.567826,12.648912,13.95506530637062
93011.6503215434,11.361527,-4.4460235,8.109566,14.649794587045829
93016.20860128617,-7.6884136,6.0373073,10.937983,14.669705355854534
93020.76688102893,1.9765421,-0.110073775,11.122237,11.297034601752097
93025.32516077171,10.045428,-1.2203832,6.661856,12.115291338748822
93029.88344051447,-9.346699,6.8102164,10.930804,15.912960305921898
93034.44172025724,6.511103,-0.4450809,9.356271,11.407557420832683
93039.0,5.9248405,0.03828653,6.0851655,8.493199630952398
93044.09204180064,-8.557039,5.6257267,12.340227,16.03598826895751
93048.6503215434,10.007142,-1.6032485,9.976034,14.22091948961361
93053.20860128617,4.742744,1.5529974,4.5680614,6.765545545490971
93057.76688102893,-10.327791,7.0734363,13.764008,18.604963968089343
93062.32516077171,13.941083,-4.7762446,10.363685,18.015889499859373
93066.88344051447,1.3711363,4.2617693,4.5417395,6.377310562099076
93071.44172025724,-8.049743,5.6400843,13.668291,16.83541184936788
93076.0,13.0509205,-4.3670573,10.9284115,17.57349974456243
93080.09204180064,-2.4766598,5.2404685,5.314649,7.8639587904330535
93084.6503215434,-6.17131,4.608741,13.350035,15.41262454036969
93089.20860128617,12.160759,-5.4007936,11.713285,17.72720159689924
93093.76688102893,-1.14381,5.6089764,5.814767,8.159683378425045
93098.32516077171,-4.5848117,5.5826545,13.216031,15.06154059131363
93102.88344051447,10.940375,-5.5802617,9.176803,15.331172136595455
93107.44172025724,-4.2474117,7.2002606,8.518753,11.935384850611992
93112.0,-0.2632199,2.5197322,10.533582,10.8339597943779
93116.09204180064,7.985134,-2.2110472,10.12918,13.086305138998704
93120.6503215434,-4.1062303,6.956184,8.121531,11.454644861472358
93125.20860128617,-0.07418015,2.7518444,11.150951,11.485724117393138
93129.76688102893,7.9061685,-4.4101295,9.526167,13.141712227447817
93134.32516077171,-4.7786374,6.9346476,8.396714,11.892414335813418
93138.88344051447,0.87580436,2.2756555,11.485959,11.741928946359549
93143.44172025724,6.793466,-2.5939124,7.420408,10.389514748942501
93148.0,-5.57069,7.6453414,9.5907755,13.47096161712497
93153.09204180064,3.0677083,1.1629534,9.258162,9.822263407316282
93157.6503215434,6.618784,-1.8521109,7.815238,10.407524269546471
93162.20860128617,-3.491253,7.130866,9.971248,12.746132123019475
93166.76688102893,0.80162424,2.9360983,10.126787,10.574265439868032
93171.32516077171,6.64032,-3.3189635,7.3342633,10.435553965672312
93175.88344051447,-3.7927594,7.6261983,11.339992,14.18236027384988
93180.44172025724,2.761416,1.3567789,8.774794,9.298563171317234
93185.0,6.738429,-1.3208853,6.824574,9.681217570392326
93189.09204180064,-2.8212388,8.0306,11.459637,14.274915232616776
93193.6503215434,2.8499537,2.2086542,8.238783,8.993216042573998
93198.20860128617,7.0447216,-2.3282995,7.2457256,10.370613311357346
93202.76688102893,-0.2392908,6.982506,11.804215,13.716856122786504
93207.32516077171,0.7657306,3.436216,9.609919,10.23447443384336
93211.88344051447,6.544604,-2.861918,6.544604,9.687840712581727
93216.44172025724,-0.30389932,7.5615897,12.301941,14.443259533613718
93221.0,3.1921394,2.4838386,8.822652,9.70558583770121
93225.09204180064,7.449123,-2.4359803,6.774323,10.359289821191705
93229.6503215434,1.5290682,6.9968634,11.160523,13.260898183458004
93234.20860128617,1.0289505,4.453202,9.88271,10.888420644352157
93238.76688102893,5.8698034,-3.278284,7.650127,10.184605100613208
93243.32516077171,4.1516957,6.3292418,10.086107,12.610528671063507
93247.88344051447,1.4812101,5.3577213,11.483566,12.758191445701529
93252.44172025724,6.1832747,-3.4481807,6.587676,9.6705900149106
93257.0,4.3407354,6.692964,8.913583,11.962011236242764
93262.09204180064,1.8138243,6.0755935,12.136829,13.693261596265286
93266.6503215434,4.917426,-2.0124357,6.9920774,8.781806322147013
93271.20860128617,7.678842,4.524989,6.5039244,11.033638226441917
93275.76688102893,-0.52165395,8.303391,14.278482,16.525540026478883
93280.32516077171,4.4388447,-2.029186,6.719286,8.304802372309053
93284.88344051447,8.7053995,4.3909864,4.5465255,10.758049829859289
93289.44172025724,1.2706342,8.207675,15.652012,17.71908349277633
93294.0,3.3141778,0.067001425,6.010985,6.864415805528528
93299.09204180064,8.119137,2.316335,4.087087,9.380302425964901
93303.6503215434,2.677664,8.2028885,15.800372,18.003028066931194
93308.20860128617,3.206497,2.4168372,7.205046,8.248358195691361
93312.76688102893,8.810688,0.33740005,2.711165,9.224558389663379
93317.32516077171,1.7324655,9.672134,14.972425,17.908800160906125
93321.88344051447,4.0224786,4.2569833,8.040172,9.94719089459536
93326.44172025724,7.8774533,0.2368979,4.0775156,8.87336038809135
93331.0,6.427351,7.391693,11.957362,15.45724659447775
93336.09204180064,1.2610626,7.65252,10.97627,13.439860279944087
93340.6503215434,5.465402,-0.6460852,5.5395823,7.808650150041064
93345.20860128617,8.92794,6.43453,7.1643667,13.131619823029027
93349.76688102893,1.7300725,9.01887,14.223446,16.9304336343483
93354.32516077171,3.2232473,0.66044265,5.223718,6.17355144097952
93358.88344051447,8.044957,5.75973,4.070337,10.698760026204813
93363.44172025724,3.2495692,8.882475,15.266753,17.95917061766001
93368.0,3.125138,3.9817991,6.7264647,8.418226591874971
93372.09204180064,10.004748,2.0698655,1.5194967,10.32899781938718
93376.6503215434,2.7159507,9.916211,15.400757,18.51731473444248
93381.20860128617,3.2687125,5.6113696,9.188767,11.251906024125399
93385.76688102893,6.7551794,1.5434257,2.5101607,7.369906265172532
93390.32516077171,5.747765,6.9394336,11.1007,14.297485152083004
93394.88344051447,1.380708,8.712579,11.679785,14.636692422085327
93399.44172025724,3.4960387,1.5266753,5.410365,6.620050868139367
93404.0,8.913583,4.3862004,4.7451367,11.009406802754453
93408.09204180064,1.3519931,9.258162,14.85996,17.56017824973003
93412.6503215434,1.1103094,2.6920216,7.420408,7.971337538020763
93417.20860128617,7.099758,3.799938,1.6295704,8.215935257228123
93421.76688102893,3.5773976,6.8532887,15.00832,16.882387533060406
93426.32516077171,-0.27997026,6.408208,10.476151,12.283861481331897
93430.88344051447,5.494117,1.0744157,3.0270288,6.364164836184315
93435.44172025724,3.4864671,6.276598,11.19881,13.302799731976965
93440.0,0.598227,7.3845143,12.500552,14.531095185674667
93445.09204180064,0.7513731,1.9645776,6.7360363,7.056791885605176
93449.6503215434,5.623334,4.2306614,4.8719606,8.558994172504052
93454.20860128617,0.46901,7.5089455,13.752043,15.6755516514067
93458.76688102893,-1.2945633,4.7331724,10.71305,11.783388961089617
93463.32516077171,6.3651357,1.5912839,1.5936768,6.7518103255846835
93467.88344051447,0.49054617,6.477602,13.620433,15.090267006345337
93472.44172025724,-1.2012398,6.121059,11.988469,13.514204723273435
93477.0,0.8183746,2.1464386,6.482388,6.87737521384715
93481.09204180064,5.161503,2.0650797,7.2840123,9.163105509209876
93485.6503215434,-2.41923,8.028207,12.991098,15.46199885763005
93490.20860128617,-2.000471,3.4816813,10.9786625,11.689953771744221
93494.76688102893,5.1902175,2.0339718,1.8832186,5.884038687490715
93499.32516077171,0.8734115,4.785816,12.732664,13.630393060036244
93503.88344051447,-3.3476784,6.781502,12.395264,14.52027168049987
93508.44172025724,1.2706342,2.1584032,5.8698034,6.381834187647893
93513.0,4.532168,0.9667349,7.7458434,9.02625133288596
93517.09204180064,-2.5149465,7.4658732,12.73745,14.976877212517985
93521.6503215434,-2.9121692,2.8595252,11.08395,11.811501234871193
93526.20860128617,3.2639267,1.9908996,3.3644288,5.092767407856213
93530.76688102893,1.9310769,2.8523464,12.234939,12.710573170122093
93535.32516077171,-4.5656686,7.032757,12.77813,15.283507682563418
93539.88344051447,0.95955616,1.536247,6.0779867,6.342138850149833
93544.44172025724,2.995921,1.1509888,8.85376,9.417504127610798
93549.0,-0.7657306,6.2598476,12.091365,13.637197032023373
93554.09204180064,-3.3165705,4.9102473,10.401972,11.971265176137882
93558.6503215434,3.3428926,1.4189945,4.276127,5.610146027180933
93563.20860128617,2.2541194,2.8092742,11.507495,12.058006343308458
93567.76688102893,-2.9863493,7.4706593,12.804451,15.12226827991383
93572.32516077171,0.5240469,2.0985804,4.8217096,5.284652147057168
93576.88344051447,2.0914016,1.3137065,8.963834,9.297854881647746
93581.44172025724,0.3613291,4.9892135,12.5579815,13.517607385237646
93586.0,-4.276127,5.4797597,11.634319,13.552505564788898
93591.09204180064,2.782952,0.08375178,3.594148,4.546398139281377
93595.6503215434,-0.22014755,2.6992004,12.273226,12.56846148859148
93600.20860128617,-2.3139422,6.24549,13.522324,15.073610058841805
93604.76688102893,-1.4620669,3.0389934,5.9439836,6.83403698719784
93609.32516077171,2.4814458,-0.3804724,7.757808,8.153889714140325
93613.88344051447,-0.37807947,4.5991693,12.802058,13.608379454257658
93618.44172025724,-4.1253734,5.77648,12.660876,14.51496496610321
93623.0,2.526911,-0.39961565,2.6226273,3.663761158202212
93627.09204180064,-0.2967206,1.4189945,11.995648,12.082928430037091
93631.6503215434,-2.4311945,5.3242207,14.280875,15.433775413837138
93636.20860128617,-3.383572,3.773616,7.650127,9.176773959882034
93640.76688102893,3.3716075,-1.6176059,6.2119894,7.250737775391096
93645.32516077171,-1.8688612,4.6661706,13.665898,14.56099441657656
93649.88344051447,-3.5582542,5.3194346,13.019813,14.50769064911655
93654.44172025724,0.9499845,0.8446966,2.3809435,2.6990507306243914
93659.0,0.63172776,0.31347096,11.406993,11.428772169728774
93664.09204180064,-3.3931437,6.2837768,14.103801,15.808746872812815
93668.6503215434,-3.9530842,4.6733494,7.97317,10.05179134063526
93673.20860128617,3.2136755,-1.5075321,4.9078546,6.057012467097276
93677.76688102893,-1.8353605,3.4505734,14.015263,14.550003502161667
93682.32516077171,-4.182803,5.541975,11.87361,13.754706186230733
93686.88344051447,-1.1366314,1.9717562,3.2447834,3.963378957987737
93691.44172025724,1.9430413,-2.234976,11.825752,12.190936698202712
93696.0,-4.560883,5.6257267,14.182766,15.924864396707996
93700.09204180064,-4.91264,3.441002,9.052371,10.859095139800784
93704.6503215434,1.304135,-1.8042527,5.984663,6.385318091313173
93709.20860128617,-1.040915,0.57669085,14.5895605,14.63801051908554
93713.76688102893,-5.857839,4.917426,12.421586,14.587362851824624
93718.32516077171,-2.5651975,1.6056414,3.749687,4.818555293588443
93722.88344051447,2.2014754,-2.988742,12.450301,12.991884685062832
93727.44172025724,-4.608741,4.8073525,14.235411,15.716171862233443
93732.0,-4.9102473,2.9624202,7.575947,9.501654326238896
93736.09204180064,0.33979294,-1.4405307,6.6235695,6.786918362633116
93740.6503215434,0.19143265,-0.31586388,14.977212,14.981765441466457
93745.20860128617,-6.774323,5.4773664,11.502709,14.42932115959926
93749.76688102893,-2.0507221,0.2584341,3.2734983,3.8714390652022552
93754.32516077171,0.30389932,-1.9621847,14.194731,14.33293102460106
93758.88344051447,-3.8071167,3.5989337,13.953047,14.904159886710273
93763.44172025724,-5.185432,2.5580187,5.936805,8.287208112760212
93768.0,0.107680865,-2.445552,9.638634,9.94462594265602
93773.09204180064,-0.057429794,0.5168682,15.391185,15.399968396773907
93777.6503215434,-6.539818,4.1995535,10.966698,13.441500440638695
93782.20860128617,0.21296883,-2.1703677,3.2160685,3.8857365160863786
93786.76688102893,-1.0696299,-0.50968945,15.943947,15.987912227593204
93791.32516077171,-3.2591407,3.0629225,13.536681,14.256409956197379
93795.88344051447,-2.5604117,1.1007377,3.3620358,4.3669916737016825
93800.44172025724,1.483603,-3.541504,12.445515,13.024368393855035
93805.0,-2.9313123,3.9506912,14.362234,15.181380643032593
93809.09204180064,-4.2115183,2.4814458,7.4395514,8.901763009809601
93813.6503215434,1.6271775,-3.22564,6.501531,7.437900602325043
93818.20860128617,-0.95237744,1.1653463,15.4749365,15.547948882929122
93822.76688102893,-4.556097,2.2947989,11.074379,12.192866443149914
93827.32516077171,-1.5410328,-0.6819788,3.462538,3.8508501107897306
93831.88344051447,2.4862316,-2.761416,14.498631,14.967199696939156
93836.44172025724,-4.2521977,3.9602628,13.854938,15.02411973157806
93841.0,-1.1031306,-1.2275618,3.6085055,3.9680117233957173
93845.09204180064,1.6056414,-2.5963054,12.280404,12.654137996666512
93849.6503215434,-0.1483603,2.495803,14.546489,14.759789484289607
93854.20860128617,-3.0030997,0.8614469,7.0973654,7.754566022078661
93858.76688102893,2.706379,-4.29527,8.688649,10.06312342713444
93863.32516077171,2.3067634,1.2395264,13.361999,13.616188907175074
93867.88344051447,-4.0488005,2.0507221,11.694141,12.543969879910811
93872.44172025724,1.5793194,-3.4984317,4.0440145,5.575601079972588
93877.0,2.7997024,-1.0504867,13.450537,13.778925989488863
93882.09204180064,-1.3591717,1.0815945,13.259104,13.372398186388526
93886.6503215434,-1.2945633,-0.8614469,3.7951522,4.101361374030743
93891.20860128617,5.3026843,-4.5106316,13.062885,14.80213574926301
93895.76688102893,-0.7202653,2.1057591,13.780758,13.959308526720832
93900.32516077171,-1.3184924,-0.6795859,6.5781045,6.743272055705362
93904.88344051447,5.262005,-4.2282686,10.416329,12.412367292745246
93909.44172025724,2.6178415,1.2203832,12.873845,13.193874122409591
93914.0,-2.5101607,0.59583414,9.473523,9.818531615966974
93919.09204180064,4.3550925,-4.5417395,8.387143,10.48515121835949
93923.6503215434,4.6661706,-0.08135887,10.157895,11.178667101450738
93928.20860128617,-4.225876,2.2086542,14.187552,14.96739165971338
93932.76688102893,3.8142955,-4.323985,5.0131426,7.640503593970755
93937.32516077171,4.5656686,-1.4548881,9.899461,10.998243370605534
93941.88344051447,-1.74443,0.93323416,15.446221,15.572402037037572
93946.44172025724,0.52165395,-0.93084127,5.3529353,5.458251060502064
93951.0,6.8054304,-4.5537043,10.0837145,12.989665272769459
93955.09204180064,0.25125536,1.8808258,14.412485,14.536862069274076
93959.6503215434,1.2084186,-0.43072346,7.492195,7.601235697559004
93964.20860128617,6.403422,-3.907619,8.379964,11.24709278882952
93968.76688102893,2.110545,1.8114314,12.634555,12.937065508141943
93973.32516077171,0.20100428,1.0457008,9.88271,9.939911962779094
93977.88344051447,6.166524,-4.2593765,7.528089,10.622637638705806
93982.44172025724,5.4510446,0.3852582,8.5546465,10.151073236452325
93987.0,-3.1083877,3.1801748,14.752278,15.407961969103843
93992.09204180064,5.7860518,-3.8430104,5.2883267,8.730035718868754
93996.6503215434,6.5757113,-0.8159817,7.3294773,9.8806397933989
94001.20860128617,-0.81358874,1.9502201,16.295704,16.432140880966024
94005.76688102893,2.0985804,0.60779864,5.55394,5.968224895699726
94010.32516077171,7.910954,-2.4599094,8.473288,11.85035682911145
94014.88344051447,1.3376356,2.1536174,15.309826,15.518315277575917
94019.44172025724,1.6630712,1.3352427,8.147852,8.42236137304003
94024.0,7.6118407,-2.9360983,6.812609,10.628849112501333
94028.09204180064,1.8210031,2.3785505,13.677863,14.002053100100316
94032.6503215434,1.4477094,2.8308103,10.007142,10.500106688486477
94037.20860128617,6.8054304,-3.3740003,6.561354,10.03738647591893
94041.76688102893,5.5324035,0.39482984,9.645813,11.126773455064846
94046.32516077171,-1.0361292,5.42233,14.288054,15.317431685987982
94050.88344051447,7.0973654,-3.7784019,5.5084743,9.746394495032574
94055.44172025724,6.1832747,0.89734054,6.45128,8.980930892662942
94060.0,-0.057429794,4.7236004,16.67857,17.334658813054816
94064.09204180064,3.1442811,0.911698,4.1301594,5.270285907655254
94068.6503215434,7.1021514,-1.5745336,6.2981343,9.622172635475183
94073.20860128617,2.443159,4.132552,16.202381,16.898643791770567
94077.76688102893,2.8284173,3.3644288,6.6738205,7.991195507521323
94082.32516077171,7.159581,-2.5053747,4.936569,9.050205300142208
94086.88344051447,2.6178415,3.9817991,15.051392,15.787723690562459
94091.44172025724,4.1780176,5.0921082,8.904011,11.075504903819871
94096.0,6.0684147,-2.1272953,5.6400843,8.553455043179023
94101.09204180064,6.094737,1.1366314,10.045428,11.804591214515602
94105.6503215434,1.0959519,7.6764493,13.225603,15.331195619918006
94110.20860128617,5.5898333,-2.005257,5.4534373,8.062708623215226
94114.76688102893,6.980113,1.4213874,5.4271154,8.955216423881945
94119.32516077171,2.1512244,6.0851655,17.274403,18.440770173394455
94123.88344051447,3.902833,1.6104271,4.4412374,6.127819393019198
94128.44172025724,7.317513,-0.5599405,5.4558306,9.144704336642361
94133.0,4.656599,5.3385777,15.987019,17.486254676519476
94137.09204180064,3.462538,4.9317837,8.035385,10.04385742447864
94141.6503215434,6.7838945,-2.1679747,4.0464077,8.191138758535935
94146.20860128617,4.1516957,5.3529353,12.957598,14.621553933867242
94150.76688102893,5.5132604,5.6807637,11.093522,13.628402210748327
94155.32516077171,4.5178103,-0.52165395,4.5489182,6.432370444915928
94159.88344051447,6.168917,2.7207365,6.975327,9.701192236640312
94164.44172025724,3.2208543,7.97317,14.996355,17.286873793626
94169.0,4.635063,0.19861138,6.826967,8.254134352754594
94174.09204180064,8.731722,2.1033661,1.7540016,9.151155099150914
94178.6503215434,3.7066147,7.3773355,18.016205,19.81786351289768
94183.20860128617,4.6900997,3.3237493,6.664249,8.800940821252668
94187.76688102893,6.3124914,1.5314612,4.0296574,7.644021182830026
94192.32516077171,6.3986363,6.1593456,12.797273,15.57723598577251
94196.88344051447,2.5986981,8.578575,9.533346,13.085483055710425
94201.44172025724,5.733408,0.2943277,5.3816504,7.868974337057622
94206.0,7.499374,6.7838945,6.695357,12.128051794763051
94211.09204180064,5.491724,8.233996,13.704185,16.904508544598894
94215.6503215434,2.811667,2.6369848,6.551782,7.601645054186892
94220.20860128617,7.5663753,4.6494203,3.1634245,9.427321935401507
94224.76688102893,4.613527,9.13373,15.178216,18.305406196948624
94229.32516077171,3.9435124,5.1423593,9.236626,11.283191440506815
94233.88344051447,8.214853,2.4790528,1.7300725,8.753437236426219
94238.44172025724,3.460145,9.490273,13.218424,16.636244109754163
94243.0,4.5034533,7.7219143,9.308413,12.905642357526974
94247.09204180064,4.3096275,3.0270288,6.4991384,8.365081738222303
94251.6503215434,7.853524,5.652049,6.166524,11.473862268632693
94256.20860128617,1.4381378,10.265575,12.182295,15.995580073240195
94260.76688102893,2.3498356,3.017457,8.810688,9.604946492678675
94265.32516077171,8.34407,5.953555,0.8925547,10.289070667237985
94269.88344051447,3.3644288,8.784366,14.075086,16.929043477988394
94274.44172025724,0.1459674,7.3893003,8.992549,11.63997435232758
94279.0,5.123216,4.36945,3.8214743,7.742293026663128
94283.09204180064,4.687707,7.499374,10.46658,13.702718861821731
94287.6503215434,0.045465253,9.698457,10.947555,14.625699837891668
94292.20860128617,1.952613,2.914562,7.367764,8.160350209354315
94296.76688102893,4.343128,7.106937,5.3768644,9.913727105500755
94301.32516077171,2.5628045,8.265104,11.244275,14.188503490913384
94305.88344051447,-2.3235137,6.7025356,10.892518,12.998832553874946
94310.44172025724,5.4199367,4.0416217,2.3665862,7.163180162466125
94315.0,0.4498667,8.425429,11.36392,14.153759629448633
94320.09204180064,-0.6293348,7.7937016,11.574496,13.968063737481641
94324.6503215434,0.64369226,3.8932614,6.901147,7.949695212391659
94329.20860128617,2.3641932,5.0131426,8.0306,9.757640317969349
94333.76688102893,-0.885376,8.7389,9.739136,13.114992714365952
94338.32516077171,-3.0820656,6.2095966,12.940847,14.680726799952511
94342.88344051447,4.1995535,3.3404996,2.9719918,6.134160287784274
94347.44172025724,-1.4548881,8.166995,10.045428,13.027936537177734
94352.0,-1.74443,7.9300976,12.34262,14.773955206200734
94356.09204180064,-0.009571632,4.680528,7.7817373,9.080906858961523
94360.6503215434,3.955477,1.9932925,6.618784,7.964126752302556
94365.20860128617,-3.6228628,10.038249,9.679314,14.407661065010547
94369.76688102893,-3.204104,6.0061994,13.82383,15.409055439717138
94374.32516077171,2.7781663,2.2230117,4.3862004,5.647897215579683
94378.88344051447,0.48097453,3.9506912,8.667113,9.537197974826524
94383.44172025724,-5.417544,8.61447,13.326105,16.767347758183494
94388.0,-2.0435436,4.012907,9.82528,10.808127502678248
94392.09204180064,3.902833,-0.6819788,6.190453,7.3497557003445655
94396.6503215434,-3.6515777,7.853524,10.081322,13.290782978643406
94401.20860128617,-4.300056,6.0684147,14.180373,16.012467548552316
94405.76688102893,1.5577831,1.926291,5.005964,5.5854239563906525
94410.32516077171,2.7374868,0.79205257,8.274676,8.751653795643076
94414.88344051447,-5.484545,9.124159,13.026992,16.82358558341146
94419.44172025724,-1.2371335,4.4125223,8.889653,10.0013390506086
94424.0,3.4505734,-0.77530223,6.532639,7.428520891870166
94429.09204180064,-0.004785816,4.943748,10.193789,11.32934249495794
94433.6503215434,-5.1878247,7.525696,12.914525,15.821965155377226
94438.20860128617,0.83033913,1.8186102,5.821945,6.1556356059612725
94442.76688102893,2.8930259,-0.5647263,8.880082,9.356514894911806
94447.32516077171,-4.551311,7.922919,12.933668,15.835619508990042
94451.88344051447,-3.048565,4.8839254,8.999727,10.683705440834615
94456.44172025724,1.2132044,-0.21775463,7.580733,7.680286115266462
94461.0,1.5147108,2.4120514,10.538367,10.916479276331156
94466.09204180064,-5.831517,8.131102,13.199281,16.563285579034552
94470.6503215434,0.5886554,1.7324655,4.9533195,5.280466452664922
94475.20860128617,0.6173703,-0.30868515,9.746315,9.770726108553939
94479.76688102893,-1.9693633,5.9559484,13.01742,14.450084311423565
94484.32516077171,-3.7353296,6.5278535,8.877689,11.635244755432497
94488.88344051447,0.9834852,-0.1196454,6.5278535,6.602607778584342
94493.44172025724,0.8231604,1.5745336,11.184452,11.32469494697147
94498.0,-4.2282686,7.910954,13.235175,15.988474155606186
94502.09204180064,-0.21775463,2.9121692,3.3883579,4.473155014842151
94506.6503215434,-0.96434194,-0.37568656,10.361292,10.412851083054612
94511.20860128617,-1.0768087,4.448416,12.543624,13.352543762850122
94515.76688102893,-5.8363028,7.0471144,10.445044,13.88607921271916
94520.32516077171,0.48815325,-0.832732,5.2380757,5.326271981249179
94524.88344051447,-2.084223,0.19143265,12.412014,12.58724447642974
94529.44172025724,-4.192375,5.484545,13.407464,15.080329336886047
94534.0,-3.8645465,3.3476784,6.3364205,8.141983485202427
94539.09204180064,-1.5649619,-2.3474429,10.416329,10.791640457013614
94543.6503215434,-2.5125535,2.0459363,13.024599,13.421585582367717
94548.20860128617,-6.5254602,5.1375737,12.493373,15.002021972449072
94552.76688102893,-0.7441944,-0.9571632,4.343128,4.509184795593279
94557.32516077171,-3.5989337,-1.2849916,13.484037,14.015091187945774
94561.88344051447,-3.390751,4.065551,13.292604,14.308012383920348
94566.44172025724,-5.0586076,3.984192,7.8942037,10.187332761853588
94571.0,0.17707519,-3.749687,8.60729,9.390258216097283
94575.09204180064,-3.7903664,2.0267932,13.625218,14.28710375371227
94579.6503215434,-4.9652843,4.7020645,12.002827,13.814170794293654
94584.20860128617,-0.703515,-0.107680865,2.9576344,3.0420601190600274
94588.76688102893,-1.6534995,-2.6465564,14.151658,14.491643989687477
94593.32516077171,-3.6324344,3.8717253,12.90256,13.952092711223052
94597.88344051447,-4.6900997,2.88824,9.315591,10.82216249983436
94602.44172025724,1.952613,-4.97007,7.274441,9.023956183135533
94607.0,-3.5319324,0.088537596,14.869531,15.283498864593678
94611.09204180064,-5.285934,3.101209,12.4574795,13.883349416007551
94615.6503215434,-1.3352427,-0.17946811,4.288091,4.494753196193453
94620.20860128617,2.3282995,-5.254826,13.816651,14.964425137898791
94624.76688102893,-3.926762,3.7592585,12.995884,14.087032519871679
94629.32516077171,-3.7951522,2.0220072,8.671899,9.679541600934296
94633.88344051447,2.4168372,-3.4984317,6.843717,8.05708314385285
94638.44172025724,-0.64129937,-0.004785816,14.434022,14.448262140564905
94643.0,-4.8336744,3.172996,11.167702,12.575765574390903
94648.09204180064,-0.92366254,-0.70830077,3.7951522,3.9696376018153954
94652.6503215434,2.474267,-3.9147975,13.814259,14.569879490660734
94657.20860128617,-3.0653152,3.6061125,12.68002,13.534515574574781
94661.76688102893,-2.837989,0.0,7.741058,8.244886932122538
94666.32516077171,1.6606783,-3.4051082,8.6048975,9.401961245150098
94670.88344051447,2.1799393,-0.105287954,13.429,13.605192461150338
94675.44172025724,-4.91264,2.108152,11.557746,12.734199198427046
94680.0,0.07657306,-2.8020954,4.6589923,5.43726138011391
94684.09204180064,2.421623,-2.3570144,13.417036,13.836062657462648
94688.6503215434,-1.5577831,2.0220072,12.849916,13.100974868709331
94693.20860128617,-2.3737648,-0.9691278,7.1691527,7.613850435513503
94697.76688102893,2.9241338,-3.618077,11.588854,12.487697013122453
94702.32516077171,2.132081,1.2634555,10.957127,11.233909439067517
94706.88344051447,-4.730779,1.4955676,12.5173025,13.464763431620959
94711.44172025724,3.7353296,-4.637456,6.1880603,8.587827178571322
94716.0,2.187118,-0.32064968,10.806373,11.030140469565069
94720.09204180064,-2.5340896,1.6534995,13.783151,14.111375630537564
94724.6503215434,-0.08135887,-1.9645776,6.197632,6.502063274036437
94729.20860128617,4.9389625,-4.2665553,11.325634,13.071603964560753
94733.76688102893,-0.2656128,2.7279153,11.081557,11.415470975292562
94738.32516077171,-2.5173392,-0.37568656,11.373492,11.654804044396684
94742.88344051447,5.410365,-4.6900997,8.044957,10.769884760804736
94747.44172025724,2.895419,1.2993491,9.411307,9.93199167928975
94752.0,-2.4383733,-0.3254355,13.821437,14.038649983519857
94757.09204180064,2.00765,-2.4335876,5.8434815,6.640729114353032
94761.6503215434,6.0277357,-2.390515,8.892047,11.005301426334878
94766.20860128617,-1.8377534,1.1462029,14.149265,14.314077640120756
94770.76688102893,1.1773108,-2.553233,7.496981,8.006858534184717
94775.32516077171,6.0851655,-3.1466742,9.2988405,11.549858541461717
94779.88344051447,1.9047549,0.8255533,12.002827,12.181029737757967
94784.44172025724,-3.2232473,0.5527618,12.208617,12.639034686920736
94789.0,6.9107184,-4.840853,9.15048,12.446813680701883
94794.09204180064,5.8554463,-0.069394335,6.611605,8.832009263012509
94798.6503215434,-3.7592585,1.2490981,16.64507,17.10995692099036
94803.20860128617,4.2043395,-3.0533507,5.6616206,7.684618985141365
94807.76688102893,6.1306305,-1.9908996,6.6307483,9.24743935166721
94812.32516077171,-0.44747382,0.5527618,15.352899,15.369361929869621
94816.88344051447,0.75615895,0.34218585,7.934883,7.978172455976013
94821.44172025724,7.0351496,-4.189982,7.9300976,11.398935345032443
94826.0,1.7061435,1.3137065,12.146401,12.335793758957527
94830.09204180064,0.21775463,0.9691278,12.744629,12.783277909803115
94834.6503215434,6.9585767,-3.0796728,6.7216787,10.153183677589825
94839.20860128617,4.36945,0.45943835,8.250747,9.34762017617103
94843.76688102893,-1.3831009,2.057901,15.912839,16.10485546862507
94848.32516077171,5.6616206,-2.21344,6.8293595,9.142943488405942
94852.88344051447,7.473052,-1.3950654,5.017928,9.108914044943292
94857.44172025724,-0.9164838,2.6872358,17.91331,18.13691963803567
94862.0,5.329006,-0.43311638,5.6879425,7.80631696960651
94867.09204180064,7.0183992,-2.0985804,5.7405863,9.306787743017056
94871.6503215434,3.35725,1.5314612,13.828616,14.312481316845847
94876.20860128617,0.6867646,5.2476473,9.901854,11.227473466382651
94880.76688102893,8.040172,-4.587205,7.0734363,11.64990629111525
94885.32516077171,6.1354165,2.1392598,8.829831,10.962923132492051
94889.88344051447,0.80162424,5.2404685,16.132986,16.981706298185816
94894.44172025724,6.618784,-2.1440456,4.7594943,8.429591874181565
94899.0,7.6716633,-0.885376,6.0253425,9.795052868272286
94903.09204180064,1.9932925,4.5680614,16.042055,16.79845018350655
94907.6503215434,4.0464077,2.2062612,5.515653,7.187727858903238
94912.20860128617,6.688178,-1.5003533,4.3838077,8.136372344914173
94916.76688102893,2.7446656,5.309863,14.644597,15.817460467059854
94921.32516077171,6.140202,4.23784,8.217246,11.098851305018911
94925.88344051447,6.5781045,-1.7492158,4.8647823,8.366440196062074
94930.44172025724,6.9394336,3.22564,10.138752,12.70255030361671
94935.0,3.3428926,7.3031554,13.876474,16.033325930834184
94939.09204180064,7.0710435,-2.443159,5.549154,9.314601021723327
94943.6503215434,8.839402,1.8545038,4.2115183,9.965495394261808
94948.20860128617,3.0102785,7.396479,17.705128,19.422698981897113
94952.76688102893,6.0325212,1.3089207,4.5728474,7.682155867399768
94957.32516077171,8.155031,-0.31107804,4.1971607,9.177007033862168
94961.88344051447,5.991842,6.5757113,14.85278,17.31320950552819
94966.44172025724,5.0466433,5.984663,9.631455,12.411676971224674
94971.0,7.3893003,-2.8571322,4.034443,8.890539559110342
94976.09204180064,6.125845,6.7240715,8.982977,12.784091296751061
94980.6503215434,6.089951,6.6977496,14.225839,16.86184592921612
94985.20860128617,4.6948857,-0.70830077,3.4529665,5.8708278263775835
94989.76688102893,7.0925794,3.4242516,3.8621538,8.771910484054278
94994.32516077171,4.0607653,8.51636,16.819752,19.285286096213042
94998.88344051447,5.228504,1.8449322,6.501531,8.544643599622738
95003.44172025724,8.430215,0.7346228,1.0815945,8.531004763035542
95008.0,2.5939124,9.246197,16.274168,18.896271711475435
95012.09204180064,5.223718,4.7714586,10.236861,12.443768321869342
95016.6503215434,5.522832,-0.16750357,3.6946502,6.646816594923226
95021.20860128617,6.645106,6.2287397,7.7195215,11.939248058004086
95025.76688102893,1.9143264,8.6455765,15.860195,18.16470269564339
95030.32516077171,3.8717253,-0.66283554,4.9652843,6.331165448128305
95034.88344051447,7.994706,5.0418572,2.1679747,9.697203841905559
95039.44172025724,3.8310459,8.525931,17.951597,20.239274862382715
95044.0,3.1801748,3.3381069,7.1260805,8.487490366820035
95049.09204180064,5.977484,2.7901309,1.5003533,6.765072463337824
95053.6503215434,4.132552,8.667113,13.819044,16.827442196050146
95058.20860128617,3.4673238,6.9035397,11.904717,14.19166944279677
95062.76688102893,4.9078546,0.19861138,1.9908996,5.300015516230761
95067.32516077171,4.271341,7.934883,6.831753,11.30838499587713
95071.88344051447,4.225876,8.248354,15.857802,18.367450992119075
95076.44172025724,2.8212388,2.3115492,6.1378093,7.139702449949337
95081.0,7.4347653,4.118195,0.6652284,8.525127210093444
95086.09204180064,1.3854938,10.153109,17.240902,20.05626877585468
95090.6503215434,2.8260245,4.469952,10.447436,11.709645781619539
95095.20860128617,6.458459,2.680057,0.28714898,6.998346427167281
95099.76688102893,2.81406,9.162445,11.818573,15.216701344836666
95104.32516077171,1.3184924,8.363214,12.857095,15.39437112900942
95108.88344051447,2.7757733,2.108152,6.1545596,7.073035143278242
95113.44172025724,7.7506294,5.733408,2.706379,10.013426520539777
95118.0,-0.2057901,10.643655,15.766871,19.024299263177184
95122.09204180064,1.4931747,3.0246358,9.609919,10.18472069297547
95126.6503215434,6.9155045,5.178253,-0.5695121,8.658108953667403
95131.20860128617,3.0629225,8.322535,13.88126,16.47226342233608
95135.76688102893,-0.9691278,7.865489,12.275619,14.611500529891337
95140.32516077171,4.3670573,2.1919038,3.3644288,5.932538485354071
95144.88344051447,3.926762,7.1452236,7.24094,10.904351983599986
95149.44172025724,0.35893622,8.959048,13.1514225,15.917075423891102
95154.0,-0.3254355,3.3333209,8.425429,9.066685740725662
95159.09204180064,4.608741,6.324456,1.8162172,8.033547299829188
95163.6503215434,1.5314612,7.753022,13.242353,15.421239785315526
95168.20860128617,-2.3857293,6.439316,12.524481,14.283526145882028
95172.76688102893,4.2569833,2.4407663,2.3330853,5.433464269208979
95177.32516077171,0.83751786,6.6714277,10.169859,12.191612518532047
95181.88344051447,-1.1103094,7.398872,12.371335,14.457732308987373
95186.44172025724,-2.8762755,4.2043395,10.732193,11.879789475087911
95191.0,4.036836,2.9504557,4.307235,6.599508093319039
95195.09204180064,-2.4766598,8.04735,11.794644,14.491629062123142
95199.6503215434,-3.8860826,6.109094,14.079871,15.832417214421168
95204.20860128617,2.2038684,3.01985,3.2519622,4.9549760945182575
95208.76688102893,0.10050214,5.0705724,9.078693,10.39920534137274
95213.32516077171,-3.0102785,8.540289,12.3833,15.340939728096297
95217.88344051447,-1.5194967,4.2737336,10.940375,11.843372587472913
95222.44172025724,5.802802,0.9140909,3.3261423,6.750651511114768
95227.0,-2.5484471,7.8630958,11.653462,14.28726827517843
95231.09204180064,-3.5032175,6.477602,14.367021,16.144446504515145
95235.6503215434,2.2301903,2.6609137,2.8595252,4.497898938670901
95240.20860128617,2.445552,2.005257,8.449359,9.021831728182143
95244.76688102893,-4.8958898,9.468738,12.983919,16.799074047248826
95249.32516077171,-2.4048727,4.4675593,10.887732,12.011877742719737
95253.88344051447,4.084694,0.2680057,3.984192,5.712297088013936
95258.44172025724,-1.1677392,5.4007936,10.823123,12.152044182858562
95263.0,-5.876982,7.805666,14.288054,17.309414381740243
95268.09204180064,-0.4091873,2.866704,6.116273,6.767142785594691
95272.6503215434,2.6680925,-0.3804724,7.8559175,8.305354694564482
95277.20860128617,-5.7860518,8.813081,12.112901,16.058367375939724
95281.76688102893,-4.766673,5.1375737,11.842503,13.76083981146753
95286.32516077171,1.9334698,0.4737958,5.209361,5.576758014826417
95290.88344051447,0.83033913,2.3378713,10.416329,10.707708210556255
95295.44172025724,-6.9633627,8.688649,13.022206,17.13356036098126
95300.0,-0.6221561,2.8188457,6.3148847,6.943395283826912
95304.09204180064,2.0961876,-0.67001426,8.7556505,9.027975257007927
95308.6503215434,-3.6228628,6.6666417,11.957362,14.161488354789785
95313.20860128617,-6.898754,5.996628,11.569711,14.744848820738074
95317.76688102893,0.37090075,0.25125536,6.3388133,6.354624353534691
95322.32516077171,0.38765112,1.0098072,10.959519,11.012767167400304
95326.88344051447,-6.97772,8.198103,13.33807,17.14064119342999
95331.44172025724,-1.9837208,2.9480627,5.5611186,6.599413760232791
95336.0,0.045465253,0.22254045,9.631455,9.634132901208162
95341.09204180064,-1.6606783,5.128002,11.835323,13.004965491781357
95345.6503215434,-6.1306305,6.764751,10.832695,14.166642770344577
95350.20860128617,0.7202653,-0.052643977,4.582419,4.638978053651415
95354.76688102893,-1.9382555,1.8712541,12.043507,12.341170412448571
95359.32516077171,-5.23329,6.8221807,13.175352,15.732748458278245
95363.88344051447,-2.7685947,2.5460541,6.2861695,7.325533091572596
95368.44172025724,-0.72744405,-1.6008555,10.413936,10.561343484133856
95373.0,-3.5247536,4.2617693,12.278011,13.466110040514907
95378.09204180064,-7.5161242,6.109094,12.873845,16.1105256765472
95382.6503215434,0.8446966,-1.6989647,4.680528,5.050478765095607
95387.20860128617,-3.4003224,0.9858781,12.9599905,13.43486143628179
95391.76688102893,-5.135181,5.8123736,12.892989,15.046027253825475
95396.32516077171,-3.2950344,2.9815636,6.3771,7.772668628471712
95400.88344051447,0.95237744,-3.4218585,9.739136,10.366624735599299
95405.44172025724,-4.5776334,4.70685,12.780522,14.368399599808587
95410.0,-5.958341,5.0633936,11.986076,14.311037701668527
95414.09204180064,1.6247846,-2.5149465,3.9626558,4.96664090543428
95418.6503215434,-2.3091564,-0.70830077,13.251925,13.470241626120465
95423.20860128617,-6.487174,5.5371895,12.49098,15.125094228651479
95427.76688102893,-3.799938,2.7494514,7.001649,8.4274610959652
95432.32516077171,2.7662017,-5.15911,10.272755,11.823611255754642
95436.88344051447,-4.551311,3.9913707,12.79488,14.1546609319312
95441.44172025724,-6.669035,3.9698346,11.761144,14.091136319378865
95446.0,0.2392908,-2.1536174,5.604191,6.008517683840865
95450.09204180064,0.35415038,-2.2924058,13.476858,13.67502279324213
95454.6503215434,-6.396243,4.9772487,12.311512,14.739683065210212
95459.20860128617,-2.8475606,0.6939433,6.4441013,7.079307892650872
95463.76688102893,2.1177237,-4.3287706,11.263418,12.251024186560487
95468.32516077171,-2.495803,3.1801748,11.923861,12.590512520175064
95472.88344051447,-6.0684147,3.0748868,11.0289135,12.958299224607856
95477.44172025724,0.8925547,-3.1945324,7.049507,7.790843349098405
95482.0,2.0172215,-1.6678569,12.584304,12.853623472910503
95487.09204180064,-5.853053,4.120588,12.431157,14.344725136620848
95491.6503215434,-1.3089207,-1.2084186,6.0325212,6.290060487798498
95496.20860128617,2.0411506,-3.3381069,12.426372,13.027815416641884
95500.76688102893,-0.43790218,2.782952,10.887732,11.246301092242584
95505.32516077171,-5.312256,2.3306925,10.401972,11.910214642393154
95509.88344051447,2.8451676,-4.300056,8.942298,10.322313393616266
95514.44172025724,2.0890088,0.60301286,10.949947,11.163732421489321
95519.0,-4.3909864,2.759023,12.967169,13.965688001458252
95523.09204180064,0.59583414,-2.371372,5.881768,6.369742403786635
95527.6503215434,2.5915194,-2.3665862,12.5675535,13.048375531765211
95532.20860128617,-0.571905,2.9097762,10.543153,10.95225766883342
95536.76688102893,-3.9171906,1.9908996,10.102858,11.017068720044026
95541.32516077171,5.3529353,-5.4630094,10.56469,13.042663179986457
95545.88344051447,1.8066456,2.424016,8.750865,9.258372434746851
95550.44172025724,-4.0775156,2.2924058,13.828616,14.598351903402417
95555.0,3.1203523,-2.7279153,6.6211767,7.811408403912337
95559.09204180064,5.5443683,-2.4144442,10.050214,11.729295037927665
95563.6503215434,-1.4644598,3.2998202,11.919075,12.453826910382569
95568.20860128617,0.107680865,0.1196454,8.394321,8.395864174786851
95572.76688102893,5.7932305,-4.225876,9.605133,11.986581144813364
95577.32516077171,1.6367491,3.5223608,9.0978365,9.892249602717255
95581.88344051447,-2.2062612,1.7061435,12.203832,12.518467542372816
95586.44172025724,4.9389625,-3.35725,7.5400534,9.61856971767413
95591.0,6.3435993,-0.09093051,7.6620917,9.947721832450798
95596.09204180064,-2.4575167,4.276127,13.546252,14.416157383242314
95600.6503215434,3.5702188,-1.5147108,6.5661397,7.625942672707825
95605.20860128617,6.817395,-2.368979,8.880082,11.44311113356809
95609.76688102893,1.4381378,3.278284,11.725249,12.259561592016487
95614.32516077171,-2.2110472,2.4670882,10.591011,11.09706122851127
95618.88344051447,6.927469,-4.2737336,9.875532,12.797685646739177
95623.44172025724,5.9822702,1.8281817,7.418015,9.70344019480967
95628.0,-3.7018287,4.455595,14.59674,15.704161268777415
95633.09204180064,4.166053,-1.7516087,5.6640134,7.246045710047946
95637.6503215434,6.09713,-0.6843717,8.6048975,10.568236364037622
95642.20860128617,0.7705164,3.5486827,12.450301,12.969072419357879
95646.76688102893,-0.18903974,3.125138,7.78413,8.390167066229568
95651.32516077171,7.420408,-4.288091,9.688885,12.935403814878375
95655.88344051447,3.1107805,3.433823,9.279697,10.372119943691272
95660.44172025724,-2.4407663,3.7114005,13.115529,13.847343960213344
95665.0,6.0755935,-2.7039862,6.764751,9.486107412370666
95669.09204180064,5.230897,0.48097453,8.494823,9.987774412973428
95673.6503215434,-1.770752,3.876511,13.551039,14.205405948375638
95678.20860128617,1.7300725,1.0815945,6.424958,6.741148479261565
95682.76688102893,7.111723,-2.6992004,8.255533,11.225689820326329
95687.32516077171,0.83751786,4.0440145,12.7589855,13.410712152277352
95691.88344051447,0.7130866,2.3761578,9.361056,9.68421333019551
95696.44172025724,6.982506,-3.5199678,8.037778,11.213894886717855
95701.0,4.718815,1.4764243,9.4137,10.633192907488112
95706.09204180064,-3.101209,4.9461412,13.768793,14.955315801041028
95710.6503215434,5.573083,-2.8930259,6.7240715,9.200108179802672
95715.20860128617,6.487174,-0.6197632,6.642713,9.305545063601553
95719.76688102893,-1.3352427,4.36945,14.922174,15.605968193504665
95724.32516077171,2.184725,1.6319634,6.034914,6.62242514883789
95728.88344051447,7.552018,-3.6396132,8.698221,12.080513593501696
95733.44172025724,4.4220943,2.495803,11.593639,12.656872278537952
95738.0,-0.859054,4.170839,11.473994,12.238725834451598
95742.09204180064,6.767144,-4.400558,6.826967,10.571973659028336
95746.6503215434,5.3816504,1.1581675,9.081086,10.61930487015381
95751.20860128617,0.0071787243,3.491253,14.01287,14.441240413516823
95755.76688102893,3.9147975,-0.9547703,5.75973,7.029346731003412
95760.32516077171,7.2194037,-2.5580187,7.803273,10.934089763928792
95764.88344051447,0.8255533,3.8908687,14.400521,14.939725652207324
95769.44172025724,3.0820656,1.5912839,7.6764493,8.423727599380992
95774.0,7.891811,-3.7903664,7.025578,11.225252983343134
95778.09204180064,3.5080032,3.0629225,12.486195,13.326389093458195
95782.6503215434,1.9071478,4.314413,10.421115,11.439012636973475
95787.20860128617,6.9035397,-3.256748,7.3199058,10.575740581437014
95791.76688102893,8.511574,0.055036888,7.42998,11.298430148339934
95796.32516077171,-0.5025107,6.4680305,14.769029,16.13109274523539
95800.88344051447,5.841089,-1.3998512,5.6999073,8.280510087950846
95805.44172025724,8.521146,-0.86623275,5.235683,10.03855890090692
95810.0,3.6132913,4.5991693,16.068378,17.09973695176631
95815.09204180064,3.9411197,4.5225964,7.142831,9.327718766214065
95819.6503215434,9.176803,-3.6802926,6.6163907,11.896843817478242
95824.20860128617,7.154795,3.0964231,11.397421,13.808697728514431
95828.76688102893,2.160796,6.044486,12.340227,13.909926411356066
95833.32516077171,6.1282377,-3.4003224,4.78103,8.48385157770591
95837.88344051447,7.6668777,1.1294526,7.6190195,10.867664651790848
95842.44172025724,3.7353296,6.066022,14.922174,16.53543428553953
95847.0,4.4914885,0.7106937,5.2021823,6.909504697392225
95851.09204180064,8.652756,-1.5075321,4.4890957,9.86381364543273
95855.6503215434,2.579555,7.0710435,15.577831,17.30094155939145
95860.20860128617,5.135181,4.0488005,7.4012647,9.876314522686453
95864.76688102893,7.449123,-1.797074,3.7927594,8.55008375964197
95869.32516077171,5.8171597,4.400558,12.409621,14.394545878571824
95873.88344051447,2.8260245,7.860703,10.995413,13.808554347554931
95878.44172025724,5.0657864,-1.483603,6.0612364,8.037528003604027
95883.0,10.763301,1.4740313,5.173467,12.032712806764303
95887.09204180064,2.0339718,8.5043955,16.680962,18.83391295904968
95891.6503215434,3.2854629,1.5266753,5.2955055,6.416181297269954
95896.20860128617,8.303391,0.67001426,4.063158,9.268466655302179
95900.76688102893,6.1234517,6.168917,16.080343,18.27921302115523
95905.32516077171,2.450338,6.561354,7.597483,10.333308790646344
95909.88344051447,5.5563326,-1.5242825,5.379257,7.8824282409469495
95914.44172025724,6.874825,5.360114,9.767851,13.092171478857967
95919.0,4.1277666,7.542446,13.019813,15.602643344060665
95924.09204180064,2.3019776,0.1196454,5.0203214,5.524223280420595
95928.6503215434,6.5661397,2.8308103,5.3002915,8.900604895144737
95933.20860128617,3.5080032,7.867882,16.393814,18.51936259928322
95937.76688102893,1.304135,3.8669395,7.212225,8.286747169155715
95942.32516077171,6.2933483,-0.105287954,3.0389934,6.989477753281282
95946.88344051447,1.8449322,7.946848,14.83603,16.931153360554053
95951.44172025724,3.3381069,6.5469966,8.954262,11.583821913379158
95956.0,2.21344,0.7394086,6.2430973,6.665006047155639
95961.09204180064,6.4608517,3.9913707,6.968148,10.306732329119418
95965.6503215434,0.57669085,9.542917,13.464894,16.51372785401887
95970.20860128617,0.3852582,2.0411506,7.9516335,8.21846670437192
95974.76688102893,6.767144,2.8427749,1.9119335,7.584925626347846
95979.32516077171,1.3711363,8.387143,16.142557,18.242980265128715
95983.88344051447,0.5623334,6.3172774,8.025814,10.229266980771511
95988.44172025724,2.8451676,1.251491,6.200025,6.9355258197050755
95993.0,5.8195524,5.049036,9.090658,11.916376023716513
95997.09204180064,-0.06221561,9.47113,12.069828,15.342324537325226
96001.6503215434,0.3804724,0.90451926,7.623805,7.686697406357148
96006.20860128617,5.4749737,4.668564,3.1921394,7.871504353477805
96010.76688102893,2.3354783,7.654913,15.0322485,17.029992568791453
96015.32516077171,-1.2897775,6.2622404,8.942298,10.992901088780085
96019.88344051447,4.0679436,1.430959,4.400558,6.16122711022942
96024.44172025724,3.1873536,6.6546774,11.091129,13.321302367416811
96029.0,1.1844895,8.174174,11.93104,14.511025168453338
96034.09204180064,0.57908374,1.3950654,6.7767158,6.943012493304271
96038.6503215434,4.16366,5.384043,4.7523155,8.301113553794409
96043.20860128617,1.9550059,8.097601,13.8956175,16.201276978390993
96047.76688102893,-1.0265576,5.5587254,10.064571,11.543346048384928
96052.32516077171,5.697514,1.5266753,2.3522286,6.3502269753516725
96056.88344051447,1.2132044,7.9803486,11.81618,14.310134118382724
96061.44172025724,1.014593,7.4132295,11.840109,14.006196903770855
96066.0,0.16032484,2.3330853,6.848503,7.236779975403848
96070.09204180064,5.3385777,4.082301,4.9341764,8.337367093984483
96074.6503215434,0.16271774,8.959048,13.493608,16.19779228743469
96079.20860128617,-0.9739136,4.5728474,11.426136,12.345688516014313
96083.76688102893,5.0657864,2.2086542,1.5817122,5.748230919964111
96088.32516077171,1.0624512,6.769537,11.993256,13.812806493551063
96092.88344051447,-0.08135887,7.5017667,12.019577,14.168745680048236
96097.44172025724,-0.27039862,2.3809435,8.298605,8.637641594203545
96102.0,5.6185484,2.4407663,3.412287,7.012070223887326
96106.09204180064,-1.4477094,8.961441,13.591718,16.344359439722727
96110.6503215434,-1.4189945,4.3287706,12.201438,13.024088819042143
96115.20860128617,3.618077,2.3115492,2.390515,4.914092270925999
96119.76688102893,2.6633067,3.9171906,10.323006,11.357906393831094
96124.32516077171,-2.2469406,8.664721,12.694378,15.53297669072652
96128.88344051447,-0.96434194,2.2445478,9.853995,10.152298639409342
96133.44172025724,5.4079723,2.3737648,1.8018597,6.174756845558408
96138.0,-0.6101916,7.130866,13.369178,15.164316802756085
96143.09204180064,-2.342657,6.257455,12.139223,13.856569558891659
96147.6503215434,2.6154485,2.0124357,4.323985,5.439422265554656
96152.20860128617,4.137338,1.9286839,7.475445,8.758976267828803
96156.76688102893,-2.8427749,9.05955,13.328498,16.364769300866236
96161.32516077171,-2.2971919,2.5915194,11.581676,12.088353171337193
96165.88344051447,3.644399,1.9837208,1.9717562,4.593975924598656
96170.44172025724,1.3519931,3.776009,12.254083,12.893745750611712
96175.0,-4.407737,7.7458434,13.318927,16.025606131120956
96179.09204180064,-0.31347096,1.7587874,7.7458434,7.949194118807619
96183.6503215434,4.2904844,1.0026284,5.5252247,7.066939088503594
96188.20860128617,-1.3687434,6.8150024,13.187317,14.90714747580966
96192.76688102893,-3.9722273,5.0155354,13.026992,14.513328551355213
96197.32516077171,2.3043704,1.9693633,2.5173392,3.9402425554323037
96201.88344051447,2.6106627,1.9358627,10.062179,10.57405174729458
96206.44172025724,-3.5845764,8.51636,13.558217,16.407401495548463
96211.0,-1.0983448,2.1919038,9.2485895,9.568030691195117
96216.09204180064,3.0820656,1.3926725,3.615684,4.950942924617048
96220.6503215434,0.7968384,4.29527,12.916918,13.635654235398409
96225.20860128617,-4.5154176,7.394086,13.294997,15.868788520482424
96229.76688102893,1.2969562,1.5697477,3.8669395,4.370288814601842
96234.32516077171,2.3809435,1.5577831,8.131102,8.614545830816727
96238.88344051447,-1.7133222,7.1189017,13.85733,15.672901106820515
96243.44172025724,-3.5199678,4.560883,10.483331,11.962109174735316
