timestamp,accel_x,accel_y,accel_z,magnitude
14201.768147684606,0.021536173,-2.4910173,9.597955,9.915965468761566
14219.845431789738,0.045465253,-2.445552,9.712814,10.01606447026627
14237.922715894869,0.3613291,-2.4646955,9.669742,9.985449062149936
14256.0,0.54079723,-2.5125535,9.70085,10.03553075112811
14274.768147684606,0.2057901,-2.8762755,9.114587,9.559864355613382
14292.845431789738,-0.15075321,-2.0937946,9.775029,9.997894493749945
14310.922715894869,0.27997026,-1.9478272,10.021499,10.21287698714448
14329.0,0.12682413,-3.022243,9.136123,9.623865158143492
14347.768147684606,-0.1196454,-2.9241338,9.468738,9.910694870425969
14365.845431789738,-0.09571633,-1.4405307,10.401972,10.501681379772249
14383.922715894869,0.7106937,-2.864311,9.447201,9.897422380314062
14402.0,0.15553902,-2.9480627,9.033228,9.503392771524169
14420.768147684606,0.03828653,-1.6271775,9.94014,10.072514864446003
14438.845431789738,0.40679437,-2.1584032,9.99757,10.235994916867336
14456.922715894869,0.2057901,-3.0533507,9.143302,9.641850005349207
14475.0,-0.17228939,-2.7925239,9.509417,9.912461099336873
14493.768147684606,0.13639577,-1.536247,10.272755,10.387884959947712
14511.845431789738,0.54079723,-3.0294216,9.475916,9.963073868720347
14529.922715894869,0.16032484,-2.885847,9.088264,9.536789789831063
14548.0,0.021536173,-1.5314612,10.0837145,10.199369359492927
14566.768147684606,0.3326142,-2.0124357,9.906639,10.1144463975542
14584.845431789738,-0.033500712,-2.995921,9.155267,9.633046183696749
14602.922715894869,-0.2057901,-2.785345,9.432844,9.837633976857393
14621.0,0.15314612,-1.6176059,10.390007,10.516289651860816
14639.768147684606,0.74658734,-2.967206,9.363449,9.85067922928593
14657.845431789738,0.25125536,-2.88824,9.069121,9.521240216808405
14675.922715894869,0.031107806,-1.536247,10.131573,10.247428652834433
14694.0,0.4450809,-2.1823323,9.906639,10.153923751510503
14712.768147684606,0.06221561,-3.0054924,9.1480875,9.629348900950765
14730.845431789738,-0.22732627,-2.6633067,9.535739,9.903292285266451
14748.922715894869,0.11485959,-1.5673548,10.382828,10.50109094675796
14767.0,0.70112205,-2.969599,9.4137,9.89584953603263
14785.768147684606,0.16750357,-2.8547394,9.028442,9.470499429029026
14803.845431789738,-0.0598227,-1.4931747,10.119608,10.229350688769028
14821.922715894869,0.5240469,-2.2947989,9.932961,10.208057668937897
14840.0,0.08135887,-3.0102785,9.155267,9.637806272932599
14858.768147684606,-0.06221561,-2.6728783,9.514202,9.882721734701557
14876.845431789738,0.17707519,-1.7252867,10.246432,10.392176795586883
14894.922715894869,0.46901,-3.0270288,9.406522,9.892700838123705
14913.0,0.045465253,-2.8786685,9.239018,9.677202748028305
14931.768147684606,-0.15075321,-1.4357449,10.1339655,10.23627601735082
14949.845431789738,0.3804724,-2.1416528,9.94014,10.175353516340826
14967.922715894869,0.004785816,-2.9791706,9.162445,9.634618764951945
14986.0,-0.28475606,-2.4886243,9.583597,9.905537258456313
15004.768147684606,0.105287954,-1.6415349,10.220111,10.351637128179123
15022.845431789738,0.57429796,-3.0078855,9.274912,9.767353067014339
15040.922715894869,0.110073775,-2.8571322,9.145695,9.582226133693808
15059.0,-0.05025107,-1.5027462,10.239254,10.349062459380878
15077.768147684606,0.5599405,-2.4264088,9.729565,10.04317818807785
15095.845431789738,0.19861138,-2.9265265,9.119372,9.579506746688565
15113.922715894869,-0.16989647,-1.8090385,9.786994,9.954232098009204
15132.0,0.12203831,-1.5984626,10.253612,10.378175903271751
15150.768147684606,0.2967206,-3.0030997,9.179195,9.662518914373697
15168.845431789738,0.021536173,-2.8044882,9.231839,9.648443874149228
15186.922715894869,-0.047858164,-1.5242825,10.208146,10.321432667076005
15205.0,0.6125845,-2.7781663,9.619491,10.031354587451135
15223.768147684606,0.15075321,-2.9600272,9.076301,9.547969805024843
15241.845431789738,0.15793194,-1.9621847,9.801352,9.997080189859949
15259.922715894869,0.052643977,-1.9693633,9.770244,9.966886726317163
15278.0,0.06221561,-2.2325833,9.696064,9.949972666578665
15296.768147684606,0.19861138,-2.342657,9.6410265,9.923551797296005
15314.845431789738,0.19143265,-2.3522286,9.655384,9.939621020622464
15332.922715894869,-0.27997026,-2.1823323,9.648206,9.89589999103385
15351.0,0.18425392,-1.7085364,10.162681,10.306945776752748
15369.768147684606,0.45943835,-3.0078855,9.215089,9.704448673494129
15387.845431789738,-0.026321989,-2.8451676,9.356271,9.779339371585163
15405.922715894869,-0.043072347,-1.5147108,10.27754,10.388649213748279
15424.0,0.6460852,-2.8044882,9.574025,9.99722635785663
15442.768147684606,0.13400285,-2.9648132,9.11698,9.587877679398208
15460.845431789738,0.069394335,-1.9717562,9.861175,10.056610287099401
15478.922715894869,0.19861138,-1.8162172,10.138752,10.302057246751511
15497.0,0.16750357,-3.022243,9.160052,9.647204923692444
15515.768147684606,-0.019143265,-2.8906329,9.4495945,9.88185009204185
15533.845431789738,0.035893623,-1.5075321,10.337363,10.44677056216281
15551.922715894869,0.6221561,-2.7566302,9.636241,10.04207293751645
15570.0,0.15553902,-2.9600272,9.049978,9.523027628436578
15588.768147684606,-0.002392908,-1.7037506,9.844424,9.990768525232934
15606.845431789738,0.28475606,-1.9621847,10.078929,10.272101274698464
15624.922715894869,0.23211208,-2.9791706,9.073908,9.55327901163
15643.0,-0.13400285,-2.811667,9.495059,9.903513189579652
15661.768147684606,-0.019143265,-1.4812101,10.351721,10.457173494151172
15679.845431789738,0.650871,-2.8020954,9.535739,9.960205317435134
15697.922715894869,0.16511066,-2.8906329,9.028442,9.481338778884133
15716.0,0.009571632,-1.6487137,9.973641,10.108999123433925
15734.768147684606,0.3254355,-2.0339718,9.99757,10.207563639417364
15752.845431789738,0.11246668,-3.0366004,9.207911,9.696350639663944
15770.922715894869,-0.21296883,-2.7183435,9.375414,9.763868842725193
15789.0,0.0598227,-1.509925,10.325398,10.435386725917937
15807.768147684606,0.7130866,-2.9360983,9.617098,10.080562467837122
15825.845431789738,0.16511066,-2.8547394,9.064336,9.50468230362562
15843.922715894869,-0.002392908,-1.5817122,10.016713,10.140826324023429
15862.0,0.33500713,-2.0244002,10.009535,10.217691366602137
15880.768147684606,0.11246668,-3.017457,9.128944,9.615368638595987
15898.845431789738,-0.21296883,-2.7374868,9.456773,9.847321731123383
15916.922715894869,0.009571632,-1.5793194,10.33497,10.454948411362704
15935.0,0.67001426,-2.943277,9.497452,9.965610523176005
15953.768147684606,0.1483603,-2.8284173,8.994942,9.430320078603874
15971.845431789738,-0.06221561,-1.5697477,10.059786,10.181712674672124
15989.922715894869,0.3565433,-2.1679747,9.987998,10.226795268930486
16008.0,0.09810923,-2.9791706,9.131337,9.605539979224726
16026.768147684606,-0.18425392,-2.7949166,9.461558,9.867450942130644
16044.845431789738,-0.002392908,-1.5841051,10.299076,10.420190072528941
16062.922715894869,0.69155043,-2.9791706,9.451987,9.934473197372197
16081.0,0.21296883,-2.837989,9.124159,9.557709701803754
16099.768147684606,0.09093051,-1.5529974,10.153109,10.271596353436822
16117.845431789738,0.48576033,-2.2541194,9.923389,10.187770443673093
16135.922715894869,0.08375178,-2.9815636,9.078693,9.556118587049196
16154.0,-0.17946811,-2.7733805,9.523774,9.920993871753133
16172.768147684606,0.019143265,-1.5912839,10.265575,10.388194308715017
16190.845431789738,0.57669085,-2.9935281,9.435237,9.915517135688503
16208.922715894869,0.15075321,-2.835596,9.107409,9.539823368324086
16227.0,0.014357449,-1.4859959,10.14593,10.254183805455147
16245.768147684606,0.49533197,-2.3785505,9.858782,10.153740136771194
16263.845431789738,0.1483603,-2.9863493,9.128944,9.606139259627803
16281.922715894869,-0.002392908,-2.6489491,9.54531,9.906052698047771
16300.0,0.14357449,-1.6606783,10.287112,10.421282999267108
16318.768147684606,0.63412064,-2.9337053,9.337128,9.807685509930776
16336.845431789738,0.2392908,-2.5580187,9.60274,9.940489689352047
16354.922715894869,0.06221561,-2.3235137,9.624276,9.900973448120713
16373.0,0.12921704,-2.3522286,9.652991,9.936292652502004
16391.768147684605,0.13639577,-2.4024796,9.581204,9.878764200248229
16409.845431789738,-0.24168372,-1.5482116,10.002356,10.124351620208753
16427.922715894867,0.2656128,-1.9238981,10.078929,10.264343322675273
16446.0,0.28714898,-3.046172,9.121766,9.621238659811688
16464.768147684605,-0.16750357,-2.7470584,9.502238,9.89277081042603
16482.845431789738,0.071787246,-1.5338541,10.332577,10.44605232945461
16500.922715894867,0.6795859,-2.8906329,9.511809,9.964542438593064
16519.0,0.13639577,-2.8523464,8.968619,9.412258525923937
16537.768147684605,-0.22014755,-1.6774286,9.964069,10.106676144441849
16555.845431789738,0.2943277,-2.079437,10.038249,10.25559018379524
16573.922715894867,0.12443122,-2.943277,9.126552,9.590219707386463
16592.0,-0.1459674,-2.6992004,9.459166,9.837825506522208
16610.768147684605,0.057429794,-1.5793194,10.3852215,10.50477860559267
16628.845431789738,0.67240715,-2.940884,9.521381,9.98787395915608
16646.922715894867,0.16511066,-2.8499537,9.054764,9.494116531720334
16665.0,-0.0598227,-1.5482116,10.081322,10.199685837391947
16683.768147684605,0.27518442,-2.0267932,10.019106,10.225756802301381
16701.845431789738,0.12921704,-2.9743848,9.152873,9.624902396181813
16719.922715894867,-0.16032484,-2.7350938,9.451987,9.841061954753078
16738.0,0.071787246,-1.61282,10.320613,10.4461186311882
16756.768147684605,0.69633627,-2.940884,9.39695,9.870985371525657
16774.845431789738,0.12443122,-2.833203,9.071514,9.504466771992824
16792.922715894867,-0.0071787243,-1.5721406,10.066964,10.188986297838806
16811.0,0.4091873,-2.1919038,10.009535,10.25488505206961
16829.768147684605,0.105287954,-2.9504557,9.19116,9.653688234893439
16847.845431789738,-0.27518442,-2.577162,9.521381,9.867835962682788
16865.922715894867,0.052643977,-1.5984626,10.291898,10.415422147676836
16884.0,0.62454903,-2.9360983,9.334735,9.805509279907996
16902.768147684605,0.11246668,-2.7685947,9.102622,9.515014064196768
16920.845431789738,0.055036888,-1.5960697,10.11243,10.237758936954846
16938.922715894867,0.48097453,-2.443159,9.86596,10.175339263110086
16957.0,0.14118157,-2.9265265,9.160052,9.617226327461255
16975.768147684605,-0.30629224,-2.342657,9.621883,9.907698482575165
16993.845431789738,0.10050214,-1.6295704,10.251218,10.380417662706291
17011.922715894867,0.51208234,-2.9528487,9.344306,9.813133973897816
17030.0,0.057429794,-2.7901309,9.176803,9.591759062923895
17048.768147684605,-0.045465253,-1.5266753,10.203361,10.317043193530859
17066.845431789738,0.6293348,-2.553233,9.731957,10.080974560657765
17084.922715894867,0.16750357,-2.9576344,9.160052,9.62716008658473
17103.0,0.08614469,-2.290013,9.612311,9.881705480761163
17121.768147684605,0.19143265,-1.746823,10.181824,10.33235583106733
17139.845431789738,0.416366,-2.9911351,9.222268,9.704147406971517
17157.922715894867,0.047858164,-2.866704,9.243804,9.678233031803558
17176.0,-0.06460852,-1.536247,10.227289,10.34222748712223
17194.768147684605,0.5551547,-2.5915194,9.779816,10.132569789316255
17212.845431789738,0.105287954,-2.9121692,9.102622,9.557695448044479
17230.922715894867,-0.15075321,-1.9406484,9.786994,9.978681992066079
17249.0,0.1459674,-1.7492158,10.150716,10.301363876181075
17267.768147684605,0.3852582,-3.0054924,9.246197,9.730034296441817
17285.845431789738,0.004785816,-2.8403819,9.260554,9.686364262652857
17303.922715894867,-0.07418015,-1.536247,10.289505,10.403820004435294
17322.0,0.571905,-2.7015932,9.612311,10.001110133781761
17340.768147684605,0.16989647,-2.8786685,9.126552,9.57128771650475
17358.845431789738,0.1196454,-1.7300725,9.916211,10.066712793832872
17376.922715894867,0.2943277,-1.8353605,10.141145,10.310092088384687
17395.0,0.4785816,-2.8188457,9.207911,9.641605489346057
17413.768147684605,0.3278284,-2.6848428,9.461558,9.840575801645064
17431.845431789738,0.16271774,-2.3857293,9.645813,9.93780105389307
17449.922715894867,0.105287954,-2.318728,9.736743,10.009582875389489
17468.0,0.6173703,-2.837989,9.370628,9.810402477259895
17486.768147684605,0.043072347,-2.763809,9.344306,9.7445651538277
17504.845431789738,0.004785816,-1.5434257,10.239254,10.354926763235522
17522.922715894867,0.6293348,-2.7470584,9.662563,10.0651634796694
17541.0,0.14118157,-2.9600272,9.136123,9.60470909146011
17559.768147684605,-0.25364825,-2.2732627,9.712814,9.978517752478838
17577.845431789738,0.08614469,-1.6965718,10.136358,10.277720091748677
17595.922715894867,0.36372203,-2.9528487,9.176803,9.647036978316606
17614.0,0.016750356,-2.9049904,9.411307,9.849464414208892
17632.768147684605,0.0071787243,-1.586498,10.311041,10.432381987914724
17650.845431789738,0.650871,-2.861918,9.52856,9.970339180337097
17668.922715894867,0.06460852,-2.8906329,9.131337,9.578165180815583
17687.0,-0.07896597,-1.8162172,9.918604,10.083827936394487
17705.768147684605,0.27518442,-1.8162172,10.045428,10.212002501261471
17723.845431789738,0.31586388,-2.94567,9.138516,9.606727664602793
17741.922715894867,-0.047858164,-2.8930259,9.382592,9.818600811744831
17760.0,-0.0598227,-1.5194967,10.299076,10.410735585467636
17778.768147684605,0.62454903,-2.8092742,9.518989,9.944507760758226
17796.845431789738,0.14357449,-2.9337053,9.107409,9.569333263854272
17814.922715894867,-0.105287954,-1.5841051,9.995177,10.120476163819196
17833.0,0.2943277,-1.8664683,10.062179,10.238055427566955
17851.768147684605,0.17707519,-3.0054924,9.085872,9.571698396301217
17869.845431789738,-0.17946811,-2.7877378,9.444808,9.849268450038297
17887.922715894867,0.014357449,-1.5553902,10.287112,10.404043353963008
17906.0,0.69633627,-2.8523464,9.535739,9.977528875559893
17924.768147684605,0.15075321,-2.8284173,9.030835,9.46459992553777
17942.845431789738,-0.15075321,-1.5601761,10.023892,10.145702874665734
17960.922715894867,0.2680057,-1.9908996,10.07175,10.270134192648733
17979.0,0.11485959,-2.9193478,9.131337,9.587340596346246
17997.768147684605,-0.17228939,-2.7805593,9.509417,9.909097099867981
18015.845431789738,0.0598227,-1.6104271,10.332577,10.457494999318849
18033.922715894867,0.7059079,-2.914562,9.497452,9.959647187899298
18052.0,0.16750357,-2.8427749,9.009299,9.44864514358719
18070.768147684605,-0.07896597,-1.6008555,10.01432,10.141773958174097
18088.845431789738,0.3326142,-2.1225095,10.0334635,10.26089998925358
18106.922715894867,0.11485959,-2.9360983,9.136123,9.597010441997385
18125.0,-0.17946811,-2.7542372,9.490273,9.88348688322597
18143.768147684605,0.0071787243,-1.61282,10.342149,10.467152708577608
18161.845431789738,0.6939433,-2.9624202,9.428058,9.906854616695803
18179.922715894867,0.19143265,-2.864311,9.061943,9.50577376647772
18198.0,0.0598227,-1.6152129,10.0430355,10.17226884829643
18216.768147684605,0.44747382,-2.1775463,9.930569,10.176352066039682
18234.845431789738,0.021536173,-2.94567,9.112194,9.576508499932713
18252.922715894867,-0.26082698,-2.711165,9.495059,9.877985208745855
18271.0,0.05025107,-1.5577831,10.356506,10.473128944337397
18289.768147684605,0.7106937,-2.9217408,9.408915,9.877719185866205
18307.845431789738,0.16271774,-2.833203,9.088264,9.521032445896596
18325.922715894867,0.035893623,-1.5577831,10.150716,10.269615954429536
18344.0,0.48815325,-2.3641932,9.856388,10.147713411845833
18362.768147684605,0.18186101,-2.9217408,9.152873,9.609616375458067
18380.845431789738,-0.17707519,-2.6633067,9.47113,9.840064109449616
18398.922715894867,0.13878867,-1.6271775,10.18661,10.316685136395634
18417.0,0.5288327,-2.9624202,9.315591,9.789577781765582
18435.768147684605,0.1172525,-2.7685947,9.11698,9.528808376813144
18453.845431789738,0.014357449,-1.5147108,10.117215,10.229985058650058
18471.922715894867,0.055036888,-1.7875023,9.672134,9.836074910527167
18490.0,0.09093051,-2.1966896,9.672134,9.91886534188024
18508.768147684605,0.110073775,-2.3498356,9.650599,9.933171932558658
18526.845431789738,0.16271774,-2.424016,9.609919,9.912258764667502
18544.922715894867,0.12443122,-2.390515,9.624276,9.91749633818494
18563.0,0.6748001,-2.895419,9.313198,9.776219276782053
18581.768147684605,0.0598227,-2.7470584,9.353878,9.749099560848164
18599.845431789738,0.0,-1.5745336,10.31822,10.437663532895135
18617.922715894867,0.6460852,-2.763809,9.638634,10.047852091869984
18636.0,0.14118157,-2.9289196,9.15048,9.608838977179907
18654.768147684605,-0.16989647,-2.0411506,9.731957,9.945156993846192
18672.845431789738,0.24646953,-1.8305746,10.141145,10.307985860797858
18690.922715894867,0.31347096,-2.9935281,9.1983385,9.678269767310436
18709.0,-0.016750356,-2.8475606,9.382592,9.805198344937368
18727.768147684605,-0.019143265,-1.5338541,10.30147,10.41505444179634
18745.845431789738,0.63651353,-2.7446656,9.557275,9.963927145223487
18763.922715894867,0.13878867,-2.885847,9.131337,9.577509624630945
18782.0,-0.11485959,-1.8090385,9.913818,10.078174455575832
18800.768147684605,0.33740005,-1.8736471,10.086107,10.264207064577732
18818.845431789738,0.25604117,-2.9815636,9.145695,9.622838230719923
18836.922715894867,-0.019143265,-2.7757733,9.4137,9.814429762731391
18855.0,0.023929082,-1.5003533,10.349327,10.457542827008421
18873.768147684605,0.677193,-2.8068812,9.511809,9.94040657531891
18891.845431789738,0.15793194,-2.866704,9.100229,9.54238451194088
18909.922715894867,-0.055036888,-1.6678569,9.959284,10.098124256047473
18928.0,0.2919348,-1.926291,10.126787,10.312499109696983
18946.768147684605,0.15314612,-2.938491,9.102622,9.566394846860339
18964.845431789738,-0.057429794,-2.7709875,9.483095,9.87981582244427
18982.922715894867,0.14357449,-1.5290682,10.320613,10.434256844174337
19001.0,0.703515,-2.8690968,9.490273,9.939413031840674
19019.768147684605,0.16271774,-2.8523464,9.081086,9.519899158494258
19037.845431789738,-0.27039862,-1.6630712,9.954497,10.096084971560824
19055.922715894867,0.3613291,-1.9286839,10.0334635,10.223539998966027
19074.0,0.11485959,-2.9552414,9.073908,9.543712634512469
19092.768147684605,-0.15793194,-2.8092742,9.485488,9.894010644152441
19110.845431789738,0.067001425,-1.5577831,10.327791,10.44482859204873
19128.922715894867,0.6843717,-2.9313123,9.4495945,9.917448897691504
19147.0,0.14357449,-2.811667,9.011692,9.441222254344602
19165.768147684605,-0.11246668,-1.586498,10.0334635,10.15874079125688
19183.845431789738,0.45225963,-2.1679747,9.983212,10.22590704581808
19201.922715894867,0.110073775,-2.995921,9.112194,9.59269192499268
19220.0,-0.13160995,-2.7877378,9.530953,9.931156443672451
19238.768147684605,0.09810923,-1.5817122,10.311041,10.432114138961529
19256.845431789738,0.6795859,-2.967206,9.461558,9.93917643616808
19274.922715894867,0.15314612,-2.7709875,9.073908,9.48881614595263
19293.0,-0.026321989,-1.5482116,10.124394,10.24211920808948
19311.768147684605,0.5072965,-2.2565124,9.899461,10.166047709940527
19329.845431789738,0.0598227,-2.9648132,9.172017,9.639480894457883
19347.922715894867,-0.12682413,-2.7255223,9.538132,9.920711578166737
19366.0,0.10050214,-1.5649619,10.31822,10.436707833267931
19384.768147684605,0.69872916,-2.916955,9.4137,9.88000994944131
19402.845431789738,0.16032484,-2.811667,9.131337,9.555756944417277
19420.922715894867,-0.105287954,-1.5123179,10.148323,10.260928354503159
19439.0,0.416366,-2.268477,9.909033,10.173902080351178
19457.768147684605,0.110073775,-2.8786685,9.140909,9.584104857268414
19475.845431789738,-0.19621846,-2.60827,9.614705,9.96414202598346
19493.922715894867,0.23211208,-1.6965718,10.241647,10.38381265060412
19512.0,0.74658734,-2.8978117,9.294055,9.763921530201385
19530.768147684605,0.15553902,-2.8308103,9.155267,9.584184534044493
19548.845431789738,0.10289505,-2.2517266,9.609919,9.870734686892513
19566.922715894867,0.21296883,-2.3618002,9.645813,9.93303399461819
19585.0,0.110073775,-2.340264,9.710421,9.989055401932646
19603.768147684605,-0.49533197,-1.823396,9.806137,9.98651338536574
19621.845431789738,0.2991135,-2.0411506,10.038249,10.248034330727217
19639.922715894867,0.16271774,-2.940884,9.13373,9.596890094049566
19658.0,-0.1459674,-2.8020954,9.497452,9.903264088413875
19676.768147684605,0.019143265,-1.6080343,10.308648,10.433329495538581
19694.845431789738,0.63651353,-2.94567,9.4495945,9.9185158888416
19712.922715894867,0.15793194,-2.8284173,9.045193,9.478417764999623
19731.0,0.014357449,-1.5721406,10.054999,10.17717235250102
19749.768147684605,0.39482984,-2.112938,10.002356,10.230714693760863
19767.845431789738,0.16989647,-2.9576344,9.138516,9.606713316053405
19785.922715894867,-0.07418015,-2.6680925,9.425665,9.796294247083194
19804.0,0.08614469,-1.6678569,10.325398,10.45958944724394
19822.768147684605,0.64369226,-2.9025974,9.447201,9.903990010418612
19840.845431789738,0.12921704,-2.763809,9.014085,9.42916038781462
19858.922715894867,0.026321989,-1.5458187,10.114822,10.23229555828303
19877.0,0.39961565,-2.2421548,9.978427,10.235035720954615
19895.768147684605,0.13639577,-2.940884,9.162445,9.623814258679086
19913.845431789738,-0.19382556,-2.706379,9.559668,9.937268634266376
19931.922715894867,0.1172525,-1.6056414,10.263183,10.388684120024017
19950.0,0.60779864,-2.938491,9.425665,9.891779882108773
19968.768147684605,0.13639577,-2.7949166,9.11698,9.536744042252023
19986.845431789738,-0.031107806,-1.5529974,10.114822,10.233395952062292
20004.922715894867,0.46422416,-2.4551237,9.813316,10.126416314219231
20023.0,0.09571633,-2.916955,9.107409,9.563612642779646
20041.768147684605,-0.22254045,-2.6202343,9.619491,9.972450006786882
20059.845431789738,0.12921704,-1.6223917,10.248825,10.377247503663014
20077.922715894867,0.5240469,-2.988742,9.416093,9.89292733626466
20096.0,0.055036888,-2.785345,9.066729,9.48508042071899
20114.768147684605,-0.15553902,-1.5075321,10.126787,10.239563484965654
20132.845431789738,0.5527618,-2.4838386,9.746315,10.073016225421966
20150.922715894867,0.14118157,-2.9767776,9.143302,9.616709862461976
20169.0,0.016750356,-2.5819478,9.626669,9.966919837738837
20187.768147684605,0.2632199,-1.7300725,10.198574,10.347625196366955
20205.845431789738,0.60540575,-2.9552414,9.33952,9.814611642077695
20223.922715894867,0.088537596,-2.861918,9.296448,9.727402477605903
20242.0,-0.043072347,-1.5194967,10.289505,10.401184480308576
20260.768147684605,0.5288327,-2.3976939,9.777423,10.08100196327803
20278.845431789738,0.12203831,-2.914562,9.186374,9.63841440636517
20296.922715894867,-0.234505,-2.3139422,9.6410265,9.917596133825379
20315.0,0.15314612,-1.74443,10.1435375,10.293582601450154
20333.768147684605,0.4737958,-2.969599,9.224661,9.702441509528395
20351.845431789738,0.17707519,-2.8236315,9.188767,9.614452113926971
20369.922715894867,0.13400285,-1.5960697,10.270362,10.394504839679003
20388.0,0.5623334,-2.4910173,9.712814,10.042915007120733
20406.768147684605,0.11246668,-2.8762755,9.131337,9.574284564059054
20424.845431789738,-0.45465255,-2.0507221,9.746315,9.970096596917951
20442.922715894867,0.13160995,-1.6750357,10.1339655,10.272308529751419
20461.0,0.36611494,-2.988742,9.217482,9.696834190197293
20479.768147684605,0.07418015,-2.7757733,9.274912,9.681653408142171
20497.845431789738,0.040679436,-1.5194967,10.246432,10.358566202349058
20515.922715894867,0.6532639,-2.6752713,9.6410265,10.026625664965716
20534.0,0.15314612,-2.866704,9.095444,9.537743292562611
20552.768147684605,-0.30868515,-2.0722585,9.786994,10.008735852678338
20570.845431789738,0.2656128,-1.6941789,10.126787,10.270959412250544
20588.922715894867,0.7633377,-2.8906329,9.380199,9.845129571844378
20607.0,0.49293905,-2.3785505,9.370628,9.680349193208329
20625.768147684605,0.27279153,-2.2756555,9.775029,10.04013023443227
20643.845431789738,0.040679436,-2.500589,9.420879,9.747182223395399
20661.922715894867,0.16511066,-2.4575167,9.686492,9.994737471634185
20680.0,0.14118157,-2.0985804,9.990392,10.209402736920305
20698.768147684605,0.33500713,-2.94567,9.253376,9.716695370517016
20716.845431789738,-0.12203831,-2.7015932,9.399343,9.78065171647794
20734.922715894867,0.047858164,-1.509925,10.311041,10.42111944145961
20753.0,0.75615895,-2.8978117,9.399343,9.864924624038999
20771.768147684605,0.24886245,-2.864311,9.0571575,9.502542396829769
20789.845431789738,0.071787246,-1.6774286,10.038249,10.17768947761658
20807.922715894867,0.44747382,-2.1392598,9.961677,10.19861137429064
20826.0,0.12921704,-2.9360983,9.100229,9.563029756469978
20844.768147684605,-0.18425392,-2.7255223,9.5405245,9.923911983181476
20862.845431789738,0.12682413,-1.5577831,10.358899,10.476142469382365
20880.922715894867,0.68915755,-2.9097762,9.420879,9.884062767680577
20899.0,0.25364825,-2.7805593,9.033228,9.454895851120124
20917.768147684605,0.026321989,-1.5410328,10.078929,10.196091639683402
20935.845431789738,0.4785816,-2.290013,9.918604,10.190775495360674
20953.922715894867,0.09332342,-2.9337053,9.100229,9.56187763467038
20972.0,-0.18186101,-2.7159507,9.523774,9.905136689357937
20990.768147684605,0.13878867,-1.6439278,10.256004,10.38784765745769
21008.845431789738,0.64369226,-2.9217408,9.404129,9.868563789965059
21026.922715894867,0.18903974,-2.8212388,9.124159,9.552245905922112
21045.0,-0.019143265,-1.4788172,10.203361,10.309987510755368
21063.768147684605,0.4785816,-2.239762,9.901854,10.16328130092927
21081.845431789738,0.105287954,-2.9600272,9.143302,9.611077881340956
21099.922715894867,-0.052643977,-2.6896286,9.507024,9.880302562716809
21118.0,0.16271774,-1.6870002,10.198574,10.338440809483156
21136.768147684605,0.6460852,-2.969599,9.296448,9.780587391520207
21154.845431789738,0.13160995,-2.7805593,9.040407,9.459270052462003
21172.922715894867,0.033500712,-1.5434257,10.1842165,10.300560708427344
21191.0,0.5025107,-2.4048727,9.858782,10.160290952051707
21209.768147684605,0.09571633,-2.9313123,9.155267,9.613566833243995
21227.845431789738,-0.22254045,-2.6010911,9.597955,9.946654681067923
21245.922715894867,0.16032484,-1.588891,10.212932,10.337033360729086
21264.0,0.56711924,-2.943277,9.250982,9.72446254018345
21282.768147684605,0.13400285,-2.785345,9.140909,9.55679448764669
21300.845431789738,0.07896597,-1.4979604,10.136358,10.246749459635977
21318.922715894867,0.64129937,-2.5221252,9.834852,10.173332505543177
21337.0,0.12921704,-2.8738825,9.145695,9.587472800496366
21355.768147684605,-0.21536173,-2.5149465,9.631455,9.95671943913435
21373.845431789738,0.22254045,-1.5482116,10.212932,10.332011587628267
21391.922715894867,0.5910483,-2.916955,9.286877,9.752130484057671
21410.0,0.12921704,-2.730308,9.203125,9.600457727833364
21428.768147684605,0.08375178,-1.483603,10.2344675,10.341780177069053
21446.845431789738,0.7106937,-2.6226273,9.767851,10.138746108278182
21464.922715894867,0.1172525,-2.9217408,9.205518,9.658772132081017
21483.0,-0.15793194,-2.526911,9.681706,10.007279988589765
21501.768147684605,0.30868515,-1.6343563,10.181824,10.316779875724606
21519.845431789738,0.48576033,-2.94567,9.236626,9.707120824991193
21537.922715894867,0.067001425,-2.7997024,9.315591,9.727438429452986
21556.0,-0.016750356,-1.5051392,10.26079,10.370609240054453
21574.768147684605,0.70112205,-2.763809,9.664956,10.076784546640521
21592.845431789738,0.047858164,-2.9648132,9.17441,9.641691063441916
21610.922715894867,-0.22254045,-2.263691,9.743921,10.00588914837698
21629.0,0.26082698,-1.715715,10.1339655,10.28148653794339
21647.768147684605,0.43790218,-2.916955,9.193553,9.655143787385185
21665.845431789738,0.043072347,-2.8092742,9.329948,9.74380862089182
21683.922715894867,-0.021536173,-2.4072654,9.698457,9.992770321268955
21702.0,0.208183,-2.4814458,9.617098,9.934258269313851
21720.768147684605,0.11246668,-2.4599094,9.626669,9.936627146365087
21738.845431789738,0.21536173,-2.1368668,9.698457,9.933410722231303
21756.922715894867,0.63412064,-2.656128,9.772636,10.146996566814932
21775.0,0.22014755,-2.967206,9.227054,9.694911134668693
21793.768147684605,-0.011964541,-2.6537352,9.626669,9.985750332224484
21811.845431789738,0.22493336,-1.5553902,10.107644,10.229090913733875
21829.922715894867,0.33740005,-2.988742,9.200731,9.679869238304049
21848.0,0.0,-2.6968074,9.160052,9.54878645668646
21866.768147684605,0.033500712,-1.40703,10.26079,10.356865700717785
21884.845431789738,0.7609448,-2.526911,9.727171,10.078798135383456
21902.922715894867,0.27279153,-2.9002047,9.210303,9.659983637281734
21921.0,0.09571633,-2.5412683,9.624276,9.954591639670085
21939.768147684605,0.37329367,-1.8090385,10.076536,10.244439770814232
21957.845431789738,0.3230426,-3.0007067,9.246197,9.726292005880177
21975.922715894867,-0.0071787243,-2.677664,9.246197,9.626115259739393
21994.0,0.0598227,-1.4237803,10.299076,10.39719652367307
22012.768147684605,0.70112205,-2.5819478,9.731957,10.093018063035954
22030.845431789738,0.110073775,-2.895419,9.203125,9.648475381485344
22048.922715894867,-0.107680865,-2.3546216,9.712814,9.994728302783908
22067.0,0.39243692,-1.6774286,10.081322,10.227454556826984
22085.768147684605,0.598227,-2.943277,9.140909,9.621692802648555
22103.845431789738,0.09810923,-2.7949166,9.325163,9.735494296569422
22121.922715894867,-0.026321989,-1.5123179,10.308648,10.419022116574537
22140.0,0.73701566,-2.8260245,9.56924,10.004996788369574
22158.768147684605,0.09810923,-2.943277,9.162445,9.62407934806053
22176.845431789738,-0.2680057,-2.2014754,9.798959,10.046786475073443
22194.922715894867,0.30629224,-1.6941789,10.119608,10.265014522890526
22213.0,0.33979294,-2.998314,9.11698,9.603367659580146
22231.768147684605,0.0,-2.833203,9.432844,9.849141341637097
22249.845431789738,0.06221561,-1.4764243,10.27754,10.383233019987472
22267.922715894867,0.73701566,-2.8786685,9.516596,9.96973037966391
22286.0,0.12682413,-2.9289196,9.179195,9.635988544578051
22304.768147684605,-0.28714898,-2.0459363,9.861175,10.075270828171206
22322.845431789738,0.2680057,-1.6726427,10.064571,10.206132963622254
22340.922715894867,0.27039862,-2.9313123,9.1480875,9.610057862546169
22359.0,-0.105287954,-2.7685947,9.463951,9.861164773824976
22377.768147684605,-0.033500712,-1.4524952,10.346934,10.448440448415425
22395.845431789738,0.7609448,-2.916955,9.497452,9.964399527968357
22413.922715894867,0.2057901,-2.885847,9.17441,9.619784889526741
22432.0,0.035893623,-1.5793194,9.9927845,10.116880951302564
22450.768147684605,0.39004403,-1.7946811,10.038249,10.204874207065801
22468.845431789738,0.27279153,-2.9863493,9.124159,9.604320632805386
22486.922715894867,-0.107680865,-2.7757733,9.52856,9.925218801380655
22505.0,0.08614469,-1.4716384,10.356506,10.460896568459406
22523.768147684605,0.77530223,-2.9073834,9.456773,9.923937089480543
22541.845431789738,0.24168372,-2.835596,9.083479,9.518855311389602
22559.922715894867,-0.28236315,-1.9956853,9.822887,10.027541961013327
22578.0,0.27279153,-1.952613,9.999963,10.192466470289599
22596.768147684605,0.09571633,-2.9049904,9.143302,9.594170224835748
22614.845431789738,-0.13639577,-2.6513422,9.564454,9.92607674691722
22632.922715894867,0.20339718,-1.4596739,10.358899,10.46321206892865
22651.0,0.7489802,-2.9360983,9.459166,9.932646474269127
22669.768147684605,0.14118157,-2.8595252,9.155267,9.592483017781774
22687.845431789738,-0.25364825,-1.8592896,9.954497,10.12982259343199
22705.922715894867,0.5527618,-2.1942968,9.911426,10.166457072525585
22724.0,0.16511066,-2.9504557,9.112194,9.579380452896947
22742.768147684605,-0.110073775,-2.969599,9.574025,10.0245992018319
22760.845431789738,0.09332342,-2.4288018,9.681706,9.982144985665142
22778.922715894867,0.21057591,-2.4048727,9.60274,9.901533741026066
22797.0,0.26082698,-2.4288018,9.6003475,9.906249593965185
22815.768147684605,-0.17468229,-2.495803,9.504631,9.828405616548883
22833.845431789738,0.16750357,-1.457281,10.210539,10.315368729688956
22851.922715894867,0.78248096,-2.9337053,9.411307,9.888963681208443
22870.0,0.24168372,-2.732701,9.066729,9.472678635705691
22888.768147684605,-0.24168372,-1.5721406,10.100465,10.224941579437331
22906.845431789738,0.59583414,-2.495803,9.837245,10.166387761994105
22924.922715894867,0.15314612,-2.9289196,9.105016,9.565737824004547
22943.0,-0.03828653,-2.7470584,9.698457,10.080072613440787
22961.768147684605,0.2392908,-1.5338541,10.210539,10.327878540996329
22979.845431789738,0.6484781,-2.9576344,9.373021,9.849956738822966
22997.922715894867,0.17468229,-2.7997024,9.112194,9.534197759887373
23016.0,-0.10289505,-1.5147108,10.217717,10.329892394940044
23034.768147684605,0.64129937,-2.500589,9.73435,10.070838105708154
23052.845431789738,0.07657306,-2.940884,9.160052,9.6208739092495
23070.922715894867,-0.09810923,-2.6633067,9.626669,9.988772899352407
23089.0,0.25604117,-1.5984626,10.1339655,10.262450804731001
23107.768147684605,0.5551547,-2.9648132,9.303627,9.7803777742455
23125.845431789738,0.15075321,-2.782952,9.162445,9.57694871776258
23143.922715894867,-0.019143265,-1.4357449,10.246432,10.346550082664988
23162.0,0.7226582,-2.6178415,9.679314,10.053081542678617
23180.768147684605,0.1196454,-2.866704,9.217482,9.653718520118616
23198.845431789738,-0.31347096,-2.3211207,9.751101,10.028451329040433
23216.922715894867,0.18903974,-1.6080343,10.131573,10.26013069057138
23235.0,0.37329367,-2.9241338,9.215089,9.675110951419912
23253.768147684605,0.07418015,-2.7135577,9.258162,9.647925253862994
23271.845431789738,0.09810923,-1.4955676,10.337363,10.445449806540164
23289.922715894867,0.75376606,-2.7494514,9.619491,10.03305802700507
23308.0,0.16032484,-2.895419,9.179195,9.626358402215608
23326.768147684605,-0.34697166,-2.1033661,9.73435,9.965044315303988
23344.845431789738,0.2368979,-1.6630712,10.100465,10.239205030055743
23362.922715894867,0.31586388,-2.9337053,9.13373,9.59851136847984
23381.0,0.026321989,-2.761416,9.368236,9.766778226408999
23399.768147684605,0.088537596,-1.4548881,10.313434,10.415923346577733
23417.845431789738,0.70112205,-2.88824,9.614705,10.063600482114799
23435.922715894867,0.10050214,-2.8451676,9.119372,9.55343001369761
23454.0,-0.35893622,-2.0890088,9.82528,10.051314344646938
23472.768147684605,0.27757734,-1.7635733,10.110037,10.26645450511146
23490.845431789738,0.2584341,-2.94567,9.17441,9.639167950660617
23508.922715894867,-0.023929082,-2.837989,9.478309,9.894093978963781
23527.0,0.10289505,-1.5482116,10.296683,10.412935578028804
23545.768147684605,0.67240715,-2.866704,9.566847,10.009729502858512
23563.845431789738,0.16032484,-2.8523464,9.114587,9.55182078037915
23581.922715894867,-0.15075321,-1.7348584,9.949712,10.100951889862651
23600.0,0.34936458,-1.9980782,10.038249,10.24113348653726
23618.768147684605,0.12443122,-2.9360983,9.160052,9.61991210970649
23636.845431789738,-0.035893623,-2.8595252,9.52856,9.948448542119877
23654.922715894867,0.107680865,-1.5314612,10.361292,10.474413610558665
23673.0,0.7130866,-2.8571322,9.504631,9.950362171978334
23691.768147684605,0.19621846,-2.8427749,9.076301,9.513102052365243
23709.845431789738,-0.2057901,-1.6247846,9.985605,10.119020791444207
23727.922715894867,0.48576033,-2.0531151,10.002356,10.22244443676686
23746.0,0.19382556,-2.938491,9.095444,9.560303303866792
23764.768147684605,-0.033500712,-2.7901309,9.554882,9.953980247657883
23782.845431789738,0.21057591,-1.5147108,10.210539,10.324427233121941
23800.922715894867,0.7489802,-2.895419,9.475916,9.93666979247117
23819.0,0.30868515,-2.6250203,9.483095,9.84454716461187
23837.768147684605,0.12682413,-2.2277975,9.679314,9.933191107169563
23855.845431789738,0.2368979,-2.2780485,9.657777,9.925637620077898
23873.922715894867,0.15075321,-2.2924058,9.6912775,9.95985494192587
23892.0,0.6532639,-2.6944146,9.746315,10.132979810448719
23910.768147684605,0.14357449,-2.9313123,9.176803,9.634672736274908
23928.845431789738,-0.07896597,-2.5484471,9.66017,9.990981066682915
23946.922715894867,0.24168372,-1.588891,10.191396,10.31734161783984
23965.0,0.38765112,-2.9719918,9.239018,9.713004800494463
23983.768147684605,0.057429794,-2.7350938,9.284483,9.679135336037321
24001.845431789738,0.052643977,-1.4907818,10.210539,10.318929616682471
24019.922715894867,0.6819788,-2.763809,9.609919,10.022688185247082
24038.0,0.15793194,-2.9097762,9.207911,9.658020760781143
24056.768147684605,-0.21057591,-2.3976939,9.748708,10.041443418216007
24074.845431789738,0.2919348,-1.7276796,10.119608,10.270178615845548
24092.922715894867,0.33740005,-2.9360983,9.162445,9.627300265340637
24111.0,0.028714897,-2.7997024,9.349092,9.759338056361173
24129.768147684605,-0.035893623,-1.5075321,10.256004,10.366270275886043
24147.845431789738,0.6293348,-2.8595252,9.571632,10.00944982520768
24165.922715894867,0.17468229,-2.864311,9.215089,9.651562396062186
24184.0,-0.21536173,-1.8736471,9.920997,10.098669001610856
24202.768147684605,0.3852582,-1.7851094,10.086107,10.250102139300106
24220.845431789738,0.39482984,-2.9337053,9.219875,9.683419458302295
24238.922715894867,-0.023929082,-2.8762755,9.473523,9.900564195256482
24257.0,0.052643977,-1.5410328,10.325398,10.439894507962915
24275.768147684605,0.61497736,-2.835596,9.526167,9.958245806386662
24293.845431789738,0.12682413,-2.8714898,9.136123,9.577592677838377
24311.922715894867,-0.10050214,-1.6463208,9.930569,10.066611819297407
24330.0,0.2991135,-1.8090385,10.052607,10.218463518397153
24348.768147684605,0.13639577,-2.9480627,9.15766,9.621455927498976
24366.845431789738,-0.06460852,-2.7757733,9.495059,9.892686040066696
24384.922715894867,0.13878867,-1.4644598,10.287112,10.391755294524618
24403.0,0.72744405,-2.8714898,9.516596,9.966956804591883
24421.768147684605,0.18425392,-2.837989,9.210303,9.63938859176065
24439.845431789738,-0.30868515,-1.6846073,9.961677,10.107828497227919
24457.922715894867,0.234505,-1.742037,10.007142,10.160343326510084
24476.0,0.21296883,-2.9313123,9.121766,9.58355688048226
24494.768147684605,-0.043072347,-2.782952,9.56924,9.965793056198793
24512.845431789738,0.16271774,-1.5338541,10.30147,10.4163078691011
24530.922715894867,0.6867646,-2.9002047,9.492666,9.949549773998381
24549.0,0.19143265,-2.8068812,9.0571575,9.48405664840767
24567.768147684605,-0.13400285,-1.5936768,9.952105,10.079789503640011
24585.845431789738,0.38765112,-2.0124357,10.004748,10.212499859533695
24603.922715894867,0.16032484,-2.9073834,9.083479,9.538772092484315
24622.0,-0.11246668,-2.7997024,9.6003475,10.000882681215305
24640.768147684605,0.17707519,-1.5553902,10.27754,10.396077276971809
24658.845431789738,0.6484781,-2.9337053,9.466345,9.931708729742969
24676.922715894867,0.19382556,-2.8092742,9.073908,9.500810295493693
24695.0,-0.040679436,-1.5553902,10.107644,10.226698427229842
24713.768147684605,0.39004403,-2.0866158,9.923389,10.147893825196896
24731.845431789738,0.15075321,-2.9504557,9.131337,9.597355405295607
24749.922715894867,-0.11485959,-2.7997024,9.5907755,9.99172162069085
24768.0,0.15075321,-1.6439278,10.320613,10.451807395742955
24786.768147684605,0.6819788,-2.9217408,9.349092,9.818716087681631
24804.845431789738,0.234505,-2.8571322,9.143302,9.582179734617059
24822.922715894867,0.10289505,-1.7109293,10.026285,10.1717381681863
24841.0,0.5049036,-2.4288018,9.765458,10.075622848178678
24859.768147684605,0.12682413,-2.914562,9.1480875,9.601992549437357
24877.845431789738,0.08375178,-2.1368668,9.576418,9.81228799986626
24895.922715894867,0.10289505,-2.3330853,9.818102,10.092026619603944
24914.0,0.110073775,-2.371372,9.6410265,9.928993572967453
24932.768147684605,0.21536173,-2.3809435,9.643419,9.935331027927647
24950.845431789738,0.09571633,-2.4072654,9.696064,9.99088311481832
24968.922715894867,0.17946811,-2.732701,9.05955,9.46442337178594
24987.0,-0.09093051,-1.61282,9.985605,10.115422083436453
25005.768147684605,0.27997026,-2.1153307,9.98082,10.206359546343982
25023.845431789738,0.09332342,-2.9073834,9.124159,9.576631190173144
25041.922715894867,-0.03828653,-2.7805593,9.535739,9.932939854610865
25060.0,0.12203831,-1.5601761,10.31822,10.436220905122642
25078.768147684605,0.63412064,-2.9217408,9.440022,9.902156010129444
25096.845431789738,0.15314612,-2.7877378,9.114587,9.532608874604522
25114.922715894867,0.1172525,-1.5410328,10.035856,10.154158551655971
25133.0,0.43550926,-2.1272953,9.913818,10.148834462443055
25151.768147684605,0.10050214,-2.8547394,9.188767,9.622529641541561
25169.845431789738,-0.16511066,-2.680057,9.542917,9.913487374389682
25187.922715894867,0.1459674,-1.5506045,10.296683,10.413806297400198
25206.0,0.7322299,-2.895419,9.406522,9.869258733486474
25224.768147684605,0.2919348,-2.7973096,9.140909,9.563805951188272
25242.845431789738,0.2656128,-1.7228938,9.995177,10.146057188234812
25260.922715894867,0.56711924,-2.4766598,9.80853,10.132261779001478
25279.0,0.0598227,-2.8571322,9.119372,9.556658874214154
25297.768147684605,-0.24886245,-2.553233,9.581204,9.918689498160782
25315.845431789738,0.088537596,-1.5218896,10.308648,10.420758631136104
25333.922715894867,0.6269419,-2.8762755,9.442415,9.890663169378527
25352.0,0.15075321,-2.7997024,9.164838,9.584117884559594
25370.768147684605,0.110073775,-1.5984626,10.110037,10.23621253496187
25388.845431789738,0.61497736,-2.4766598,9.6912775,10.021621650224821
25406.922715894867,0.14357449,-2.9337053,9.160052,9.61944868815936
25425.0,-0.07896597,-2.4575167,9.593168,9.90325684971469
25443.768147684605,0.14357449,-1.691786,10.217717,10.357822850197032
25461.845431789738,0.54797596,-2.9073834,9.258162,9.719399132949397
25479.922715894867,0.06460852,-2.811667,9.1480875,9.570640024961854
25498.0,-0.004785816,-1.5147108,10.1339655,10.246542268827161
25516.768147684605,0.5001178,-2.342657,9.789387,10.078207056282126
25534.845431789738,0.1483603,-2.895419,9.140909,9.589665234535463
25552.922715894867,-0.18425392,-2.5101607,9.626669,9.950256895297771
25571.0,0.31586388,-1.6870002,10.174645,10.318388466301977
25589.768147684605,0.5814767,-2.9313123,9.255769,9.726251422523232
25607.845431789738,0.12921704,-2.711165,9.222268,9.613393769344693
25625.922715894867,0.09093051,-1.4764243,10.14593,10.25319426501709
25644.0,0.59583414,-2.4048727,9.758279,10.067891540309512
25662.768147684605,0.1459674,-2.8906329,9.167231,9.613281918875892
25680.845431789738,-0.25364825,-2.4120514,9.710421,10.008726461853728
25698.922715894867,0.30150643,-1.6104271,10.141145,10.272643451554753
25717.0,0.22971918,-2.998314,9.162445,9.643290730983946
25735.768147684605,0.05025107,-2.6872358,9.19116,9.57607349389288
25753.845431789738,0.10050214,-1.4764243,10.212932,10.319588626994735
25771.922715894867,0.77290934,-2.6250203,9.703242,10.081717400018476
25790.0,0.18186101,-2.9025974,9.128944,9.581010575538523
25808.768147684605,-0.15553902,-2.2756555,9.743921,10.00733714809608
25826.845431789738,0.18903974,-1.720501,10.124394,10.271281009763888
25844.922715894867,0.34457877,-2.916955,9.121766,9.58300453717495
25863.0,-0.026321989,-2.7446656,9.377807,9.771240772398217
25881.768147684605,0.10289505,-1.4788172,10.229682,10.336531406785081
25899.845431789738,0.6460852,-2.6848428,9.6410265,10.028718707794788
25917.922715894867,0.2057901,-2.8834543,9.138516,9.584838702226683
25936.0,-0.033500712,-2.108152,9.842031,10.065336624165608
25954.768147684605,0.17468229,-1.7061435,9.952105,10.09880356656455
25972.845431789738,0.21536173,-2.3091564,9.629062,9.904414114638662
25990.922715894867,0.35893622,-2.502982,9.480701,9.81210709041401
26009.0,0.12443122,-2.4766598,9.60274,9.917758940458613
26027.768147684605,-0.3804724,-1.7252867,9.995177,10.150120034053176
26045.845431789738,0.5551547,-2.8714898,9.521381,9.960439074639085
26063.922715894867,0.25364825,-2.8810613,9.167231,9.612646662415441
26082.0,-0.055036888,-1.509925,10.066964,10.179718401899029
26100.768147684605,0.31107804,-1.9406484,10.050214,10.2405901785585
26118.845431789738,0.234505,-2.9289196,9.085872,9.549169210914275
26136.922715894867,-0.1196454,-2.7781663,9.56206,9.958188311926866
26155.0,0.107680865,-1.6247846,10.203361,10.332477721311829
26173.768147684605,0.6389065,-2.8475606,9.56924,10.004356904070077
26191.845431789738,0.22732627,-2.8068812,9.093051,9.519129991367203
26209.922715894867,0.13400285,-1.6558924,9.976034,10.113416374961623
26228.0,0.3852582,-2.234976,9.897068,10.153595254778834
26246.768147684605,0.16032484,-2.9002047,9.164838,9.614111863425924
26264.845431789738,-0.21296883,-2.6178415,9.535739,9.890842639421315
26282.922715894867,0.040679436,-1.5984626,10.210539,10.334981575727799
26301.0,0.49533197,-2.9049904,9.523774,9.969282531239259
26319.768147684605,0.16032484,-2.7398798,9.095444,9.50051298246074
26337.845431789738,-0.011964541,-1.6511066,10.064571,10.199111999034324
26355.922715894867,0.37568656,-2.1990826,9.920997,10.168740637217393
26374.0,0.19382556,-2.8906329,9.145695,9.59359494367449
26392.768147684605,0.2057901,-2.5101607,9.52856,9.855795857194005
26410.845431789738,0.15314612,-1.7683591,10.220111,10.373100620978516
26428.922715894867,0.5886554,-2.9289196,9.456773,9.917441241406088
26447.0,0.12203831,-2.8068812,9.131337,9.553784110371664
26465.768147684605,0.026321989,-1.6367491,10.047821,10.180292103446577
26483.845431789738,0.4737958,-2.1942968,9.861175,10.113465938401774
26501.922715894867,0.17468229,-2.8930259,9.200731,9.646427509439516
26520.0,-0.16271774,-2.5221252,9.56206,9.890428910365099
26538.768147684605,0.13400285,-1.6893932,10.18661,10.326617521730645
26556.845431789738,0.60540575,-2.9002047,9.418487,9.873479669964595
26574.922715894867,0.14118157,-2.8188457,9.136123,9.562142374345047
26593.0,0.043072347,-1.6798215,10.069357,10.208604502692195
26611.768147684605,0.48336744,-2.3881223,9.765458,10.064836916292954
26629.845431789738,0.1172525,-2.8475606,9.162445,9.595454543556215
26647.922715894867,-0.026321989,-2.3282995,9.631455,9.908915017590482
26666.0,0.1172525,-1.691786,10.160288,10.300841725873484
26684.768147684605,0.46661708,-2.943277,9.368236,9.830791257562778
26702.845431789738,0.1483603,-2.7709875,9.203125,9.612382236958606
26720.922715894867,0.045465253,-1.639142,10.100465,10.232704764705144
26739.0,0.5025107,-2.4646955,9.715207,10.035561168374379
26757.768147684605,0.19143265,-2.8499537,9.138516,9.57451603131384
26775.845431789738,0.035893623,-2.3618002,9.607526,9.89363150605318
26793.922715894867,0.16750357,-1.8138243,10.114822,10.27753083813993
26812.0,0.40200856,-2.9121692,9.296448,9.750194139013127
26830.768147684605,0.08375178,-2.7231295,9.2485895,9.641517327367806
26848.845431789738,0.047858164,-1.5936768,10.150716,10.275170629209798
26866.922715894867,0.5431901,-2.4623024,9.739136,10.060256389390867
26885.0,0.15553902,-2.8427749,9.095444,9.530617140350806
26903.768147684605,0.19861138,-2.2828343,9.719993,9.986442952401571
26921.845431789738,0.17707519,-1.8712541,10.102858,10.276219504168074
26939.922715894867,0.4139731,-2.9528487,9.262947,9.731026477069328
26958.0,0.07896597,-2.7877378,9.32277,9.730969023631042
26976.768147684605,-0.028714897,-1.6032485,10.114822,10.241135405302773
26994.845431789738,0.5551547,-2.5197322,9.712814,10.04967675595812
27012.922715894867,0.17468229,-2.8595252,9.19116,9.627295592089956
27031.0,0.34457877,-2.524518,9.784601,10.110902155112555
27049.768147684605,0.21775463,-2.4288018,9.617098,9.921444915140823
27067.845431789738,0.16271774,-2.4000869,9.619491,9.915719907779934
27085.922715894867,0.15314612,-2.5101607,9.645813,9.96825305180725
27104.0,0.22971918,-2.7925239,9.210303,9.627078580002351
27122.768147684605,0.0598227,-1.588891,10.102858,10.227213361100876
27140.845431789738,0.46661708,-2.3833365,9.801352,10.097748531206546
27158.922715894867,0.18664683,-2.8762755,9.15766,9.60054865445977
27177.0,0.16511066,-2.2804415,9.686492,9.95267814364716
27195.768147684605,0.18664683,-1.7994668,10.1435375,10.30360474869633
27213.845431789738,0.41875893,-2.969599,9.32277,9.79325879036982
27231.922715894867,0.08375178,-2.7446656,9.188767,9.59028897357976
27250.0,-0.031107806,-1.5936768,10.124394,10.249103731823988
27268.768147684605,0.54797596,-2.4838386,9.731957,10.058862703777047
27286.845431789738,0.15314612,-2.885847,9.124159,9.57088523067543
27304.922715894867,0.12921704,-2.1703677,9.765458,10.004567104397555
27323.0,0.20100428,-1.8162172,10.100465,10.264425987573741
27341.768147684605,0.48815325,-2.9265265,9.344306,9.804024967956977
27359.845431789738,0.05025107,-2.8068812,9.294055,9.70878805948377
27377.922715894867,0.055036888,-1.6008555,10.12918,10.255050212618219
27396.0,0.5886554,-2.5963054,9.655384,10.01567556870101
27414.768147684605,0.12203831,-2.9097762,9.15048,9.602758724116423
27432.845431789738,0.0071787243,-2.1966896,9.73435,9.979131558173323
27450.922715894867,0.25364825,-1.8090385,10.138752,10.30200222513635
27469.0,0.37568656,-2.9600272,9.229446,9.699771898504647
27487.768147684605,-0.0598227,-2.785345,9.373021,9.778304975347275
27505.845431789738,-0.019143265,-1.5984626,10.179431,10.304186752575605
27523.922715894867,0.6006199,-2.6393776,9.588383,9.963139411568363
27542.0,0.18664683,-2.864311,9.181588,9.61980627380895
27560.768147684605,0.1172525,-1.9215052,9.868353,10.054368270308798
27578.845431789738,0.2392908,-1.9047549,10.045428,10.22721736442629
27596.922715894867,0.234505,-2.943277,9.11698,9.583172565187063
27615.0,-0.07657306,-2.759023,9.432844,9.828357811780295
27633.768147684605,0.016750356,-1.639142,10.210539,10.341284917316182
27651.845431789738,0.60301286,-2.708772,9.542917,9.938225954676135
27669.922715894867,0.18425392,-2.8427749,9.162445,9.59508817140991
27688.0,0.09571633,-1.7492158,9.906639,10.06033865270545
27706.768147684605,0.2368979,-1.9191123,10.069357,10.253343992497506
27724.845431789738,0.24168372,-2.9097762,9.15766,9.611864815435112
27742.922715894867,-0.15075321,-2.6752713,9.384986,9.760008467164615
27761.0,0.040679436,-1.6439278,10.279933,10.410628026810636
27779.768147684605,0.5886554,-2.7566302,9.576418,9.98265029690138
27797.845431789738,0.19861138,-2.7949166,9.11698,9.537836735949146
27815.922715894867,0.08135887,-1.6606783,9.966462,10.104198952874125
27834.0,0.2991135,-1.9908996,10.0334635,10.23345200355162
27852.768147684605,0.16032484,-2.8930259,9.13373,9.582292347100031
27870.845431789738,-0.1483603,-2.7422726,9.466345,9.856660562804821
27888.922715894867,0.09810923,-1.6295704,10.155502,10.285880904500662
27907.0,0.63172776,-2.866704,9.495059,9.938471572623811
27925.768147684605,0.21296883,-2.8308103,9.107409,9.539588113247797
27943.845431789738,0.13400285,-1.7922882,10.01432,10.174323506654748
27961.922715894867,0.33500713,-2.084223,9.961677,10.182888781834398
27980.0,0.19382556,-2.9217408,9.128944,9.587061917252333
27998.768147684605,-0.10289505,-2.7135577,9.521381,9.901044335306493
28016.845431789738,0.088537596,-1.5912839,10.356506,10.478417813980347
28034.922715894867,0.64129937,-2.8810613,9.497452,9.945520277422597
28053.0,0.11485959,-2.8068812,9.131337,9.55369510733399
28071.768147684605,-0.13639577,-1.6439278,10.009535,10.144549932545639
28089.845431789738,0.4115802,-2.110545,9.95689,10.186434947034073
28107.922715894867,0.23211208,-2.4814458,9.607526,9.925522914017959
28126.0,0.3278284,-2.5316968,9.624276,9.957090371747803
28144.768147684605,0.234505,-2.450338,9.612311,9.92248314032279
28162.845431789738,0.24407662,-2.3378713,9.794173,10.07229072086997
28180.922715894867,0.28714898,-2.8714898,9.212696,9.654101501260232
28199.0,-0.12682413,-2.5436614,9.67692,10.006451836900043
28217.768147684605,0.18903974,-1.665464,10.160288,10.297619074404494
28235.845431789738,0.6580497,-2.9002047,9.2988405,9.762819846438449
28253.922715894867,0.13878867,-2.7542372,9.1983385,9.60283895571338
28272.0,-0.0071787243,-1.5506045,10.114822,10.232988319214813
28290.768147684605,0.6006199,-2.4910173,9.765458,10.096042858612444
28308.845431789738,0.13639577,-2.8834543,9.234232,9.674913598378355
28326.922715894867,-0.2392908,-2.421623,9.6912775,9.992115773103306
28345.0,0.17228939,-1.691786,10.105251,10.247337277395703
28363.768147684605,0.39482984,-2.9289196,9.255769,9.716157697731115
28381.845431789738,0.057429794,-2.7685947,9.286877,9.690949344993811
28399.922715894867,0.040679436,-1.5386399,10.210539,10.325898228672715
28418.0,0.677193,-2.6226273,9.69367,10.064988941019969
28436.768147684605,0.12682413,-2.8906329,9.236626,9.679209822417771
28454.845431789738,0.107680865,-2.1201165,9.729565,9.958459932714716
28472.922715894867,0.27518442,-1.8138243,10.054999,10.22099261061675
28491.0,0.3278284,-2.9360983,9.229446,9.690759420913587
28509.768147684605,0.026321989,-2.7566302,9.30602,9.705756598383093
28527.845431789738,0.03828653,-1.536247,10.227289,10.34209654726301
28545.922715894867,0.6676214,-2.6704855,9.612311,9.998686608758632
28564.0,0.17228939,-2.8810613,9.217482,9.6587873083834
28582.768147684605,0.15075321,-2.010043,9.870746,10.07445412857145
28600.845431789738,0.28236315,-1.9095407,10.026285,10.210409665368937
28618.922715894867,0.2632199,-2.8906329,9.143302,9.592966941542247
28637.0,-0.067001425,-2.7255223,9.533346,9.915525551097396
28655.768147684605,0.021536173,-1.4907818,10.229682,10.337760299169387
28673.845431789738,0.6269419,-2.6896286,9.574025,9.964392247023326
28691.922715894867,0.18425392,-2.8164527,9.140909,9.566743054177513
28710.0,-0.045465253,-1.9047549,9.949712,10.130494913934282
28728.768147684605,0.30868515,-1.9669704,9.961677,10.158704037850285
28746.845431789738,0.39243692,-2.8523464,9.100229,9.544844397590412
28764.922715894867,-0.1196454,-2.7231295,9.432844,9.818772592531483
28783.0,0.09093051,-1.6750357,10.2847185,10.420626064597348
28801.768147684605,0.63412064,-2.8236315,9.4998455,9.93086443154555
28819.845431789738,0.18903974,-2.7901309,9.105016,9.52480355822051
28837.922715894867,-0.071787246,-1.6606783,9.985605,10.123009090226292
28856.0,0.30150643,-1.9573988,9.973641,10.168374058149798
28874.768147684605,0.16271774,-2.885847,9.119372,9.566479793774914
28892.845431789738,-0.1196454,-2.6920216,9.490273,9.865423302176989
28910.922715894867,0.107680865,-1.6989647,10.253612,10.393971101897352
28929.0,0.64129937,-2.8810613,9.542917,9.988946088812828
28947.768147684605,0.17468229,-2.8188457,9.136123,9.562695668794293
28965.845431789738,-0.031107806,-1.6511066,10.066964,10.201513852240446
28983.922715894867,0.34936458,-2.0961876,9.873138,10.099253043230293
29002.0,0.17228939,-2.9049904,9.164838,9.615763538286636
29020.768147684605,-0.06221561,-2.6896286,9.526167,9.898779242914483
29038.845431789738,0.026321989,-1.639142,10.289505,10.419279844993795
29056.922715894867,0.62454903,-2.8451676,9.4137,9.854074682737274
29075.0,0.20100428,-2.7925239,9.124159,9.544048926421665
29093.768147684605,0.07657306,-1.6822144,10.047821,10.18795443497497
29111.845431789738,0.5001178,-2.28762,9.877925,10.151685839499851
29129.922715894867,0.22971918,-2.861918,9.128944,9.56979436014797
29148.0,-0.17946811,-2.6321988,9.533346,9.89168162048013
29166.768147684605,-0.13639577,-1.7611804,9.920997,10.077030399945563
29184.845431789738,0.22493336,-2.1823323,9.736743,9.980848337296443
29202.922715894867,0.34936458,-2.3546216,9.5907755,9.881764679466182
29221.0,0.09093051,-2.340264,9.648206,9.928392768508951
29239.768147684605,0.571905,-2.8690968,9.334735,9.782436777052038
29257.845431789738,-0.026321989,-2.603484,9.143302,9.506776175369067
29275.922715894867,-0.14357449,-1.5553902,10.138752,10.258369481839635
29294.0,0.45704544,-2.4335876,9.739136,10.048980503891654
29312.768147684605,0.057429794,-2.895419,9.222268,9.666280382371694
29330.845431789738,0.002392908,-2.443159,9.736743,10.038585352196728
29348.922715894867,0.40679437,-1.8568966,10.172253,10.348346618593922
29367.0,0.7489802,-2.8714898,9.258162,9.722139097428101
29384.768147684605,0.088537596,-2.833203,9.222268,9.648062251506177
29402.845431789738,-0.22971918,-1.5673548,10.059786,10.183745201866499
29420.922715894867,0.40200856,-2.3857293,9.727171,10.02353085686041
29439.0,0.11246668,-2.88824,9.138516,9.584730237933993
29456.768147684605,-0.19621846,-2.2541194,9.731957,9.991523557663772
29474.845431789738,0.24407662,-1.715715,10.110037,10.257489921955791
29492.922715894867,0.47618872,-2.9049904,9.210303,9.669302264018661
29511.0,0.13639577,-2.761416,9.253376,9.65758714837748
29528.768147684605,0.08135887,-1.5171037,10.172253,10.285084054021647
29546.845431789738,0.72744405,-2.6202343,9.619491,9.996469863499708
29564.922715894867,0.13639577,-2.9480627,9.207911,9.669296896523871
29583.0,-0.21536173,-2.318728,9.719993,9.995055984474604
29600.768147684605,0.24168372,-1.6487137,10.009535,10.147288248655684
29618.845431789738,0.43550926,-2.88824,9.143302,9.598519160597105
29636.922715894867,0.002392908,-2.7159507,9.404129,9.78846444441007
29655.0,-0.014357449,-1.4644598,10.267968,10.371885821352924
29672.768147684605,0.7226582,-2.7159507,9.475916,9.883906470516287
29690.845431789738,0.20100428,-2.8906329,9.181588,9.627965490428636
29708.922715894867,-0.047858164,-2.1679747,9.810924,10.047717872107953
29727.0,0.36850783,-1.8425392,9.9425335,10.118533546069322
29744.768147684605,0.28475606,-2.9073834,9.124159,9.58040926607957
29762.845431789738,-0.110073775,-2.7518444,9.43763,9.83125749101579
29780.922715894867,-0.004785816,-1.5147108,10.346934,10.457218316169335
29799.0,0.6676214,-2.7350938,9.5907755,9.995470530191994
29816.768147684605,0.24407662,-2.8762755,9.1983385,9.640641332863344
29834.845431789738,-0.13878867,-2.057901,9.861175,10.074571514528365
29852.922715894867,0.26082698,-1.8305746,10.01432,10.183596572039814
29871.0,0.19621846,-2.9648132,9.105016,9.577574607132801
29888.768147684605,0.0,-2.7973096,9.538132,9.939864337488522
29906.845431789738,0.055036888,-1.4740313,10.248825,10.354429545515552
29924.922715894867,0.66283554,-2.861918,9.518989,9.96198158871678
29943.0,0.15553902,-2.9002047,9.152873,9.60262796544642
29960.768147684605,-0.17707519,-1.8425392,9.964069,10.134543766899977
29978.845431789738,0.2967206,-1.8808258,9.944926,10.125566747095494
29996.922715894867,0.24168372,-2.9241338,9.138516,9.597991674463541
30015.0,-0.03828653,-2.8595252,9.621883,10.037877399804378
30032.768147684605,0.06460852,-1.4620669,10.253612,10.357527355864246
30050.845431789738,0.72983694,-2.9025974,9.4495945,9.91224343122714
30068.922715894867,0.18903974,-2.866704,9.102622,9.545232062228726
30087.0,-0.026321989,-1.6080343,10.062179,10.189892707242919
30104.768147684605,0.25604117,-1.9621847,9.949712,10.144579575349244
30122.845431789738,0.16032484,-2.885847,9.286877,9.726248062580916
30140.922715894867,-0.028714897,-2.5651975,9.296448,9.643910419327835
30159.0,0.09093051,-1.6223917,10.380435,10.506847956218971
30176.768147684605,0.650871,-2.8762755,9.466345,9.91505327618396
30194.845431789738,0.27279153,-2.7757733,8.944691,9.369462616250392
30212.922715894867,-0.057429794,-1.6247846,10.258397,10.386430194597423
30231.0,0.22014755,-2.0985804,9.440022,9.67297885863084
30248.768147684605,0.12443122,-2.2277975,9.621883,9.877205945772618
30266.845431789738,0.11485959,-2.3091564,9.684099,9.956262825321403
30284.922715894867,0.23211208,-2.0698655,9.607526,9.830705724740628
30303.0,0.39482984,-2.5293038,9.80853,10.137086814077744
30320.768147684605,0.18664683,-2.9217408,9.131337,9.5891981807189
30338.845431789738,0.019143265,-2.526911,9.631455,9.957437977890741
30356.922715894867,0.15553902,-1.7348584,10.090894,10.240120496069816
30375.0,0.42833054,-2.9337053,9.234232,9.698511971873252
30392.768147684605,0.1196454,-2.7901309,9.286877,9.697691986962928
30410.845431789738,0.05025107,-1.5386399,10.177038,10.292814987424585
30428.922715894867,0.5072965,-2.3665862,9.770244,10.06557240302203
30447.0,0.14118157,-2.8092742,9.169623,9.591347127938928
30464.768147684605,0.0598227,-2.234976,9.708028,9.96215358869734
30482.845431789738,0.16271774,-1.7731448,10.107644,10.263283430531077
30500.922715894867,0.39243692,-2.8978117,9.15766,9.613222979856234
30519.0,-0.004785816,-2.7350938,9.289269,9.683557174571451
30536.768147684605,0.0071787243,-1.5601761,10.153109,10.272284232972469
30554.845431789738,0.5838696,-2.5077677,9.66017,9.997434019580599
30572.922715894867,0.21775463,-2.8595252,9.164838,9.603049360206656
30591.0,0.11485959,-2.0746512,9.88271,10.098778503917016
30608.768147684605,0.21296883,-1.9502201,10.050214,10.239898222482077
30626.845431789738,0.24407662,-2.9576344,9.162445,9.631073305635203
30644.922715894867,-0.06221561,-2.7231295,9.490273,9.873428313935689
30663.0,-0.031107806,-1.6415349,10.148323,10.280275494160705
30680.768147684605,0.56711924,-2.6465564,9.612311,9.986110743001008
30698.845431789738,0.20100428,-2.861918,9.17441,9.612532247405067
30716.922715894867,0.088537596,-1.8880045,9.935354,10.11353840172873
30735.0,0.23211208,-1.952613,10.011928,10.203199293488044
30752.768147684605,0.24407662,-2.9719918,9.102622,9.578623905894931
30770.845431789738,-0.057429794,-2.7901309,9.485488,9.887497722807208
30788.922715894867,0.0071787243,-1.6606783,10.1842165,10.318729072373483
30807.0,0.571905,-2.7422726,9.588383,9.989205318563874
30824.768147684605,0.24168372,-2.8499537,9.217482,9.651042510163384
30842.845431789738,0.045465253,-1.7276796,10.026285,10.174150322789197
30860.922715894867,0.21296883,-1.9693633,9.987998,10.182526777668814
30879.0,0.27997026,-2.8523464,9.15048,9.588824096961913
30896.768147684605,-0.10050214,-2.706379,9.557275,9.93358411639075
30914.845431789738,-0.023929082,-1.6032485,10.217717,10.3427616740311
30932.922715894867,0.6197632,-2.7494514,9.511809,9.920589694041237
30951.0,0.16271774,-2.8212388,9.15766,9.583767636224083
30968.768147684605,0.057429794,-1.7803236,10.0334635,10.190350342740336
30986.845431789738,0.33979294,-2.029186,9.971248,10.181298627492163
31004.922715894867,0.3326142,-2.866704,9.121766,9.567405028972779
31023.0,-0.1172525,-2.656128,9.5405245,9.904058351819243
31040.768147684605,0.021536173,-1.6511066,10.157895,10.291231590161406
31058.845431789738,0.6460852,-2.861918,9.514202,9.956306565247328
31076.922715894867,0.24886245,-2.81406,9.140909,9.567501426647452
31095.0,0.0071787243,-1.7037506,10.019106,10.162937699322915
31112.768147684605,0.3254355,-2.0363648,9.909033,10.12134501232066
31130.845431789738,0.19621846,-2.88824,9.15048,9.597484889909687
31148.922715894867,-0.019143265,-2.6992004,9.58599,9.958777713356948
31167.0,0.057429794,-1.6630712,10.229682,10.364144818489962
31184.768147684605,0.63172776,-2.8930259,9.468738,9.920971632530225
31202.845431789738,0.2392908,-2.8236315,9.140909,9.570076921375183
31220.922715894867,0.045465253,-1.6989647,10.016713,10.159876350893521
31239.0,0.37090075,-2.2110472,9.801352,10.05449143989304
31256.768147684605,0.18186101,-2.8906329,9.138516,9.586516920747421
31274.845431789738,0.12203831,-2.9648132,9.729565,10.171993204344313
31292.922715894867,0.15553902,-2.392908,9.7176,10.009093407657186
31311.0,0.17707519,-2.4072654,9.631455,9.929310537291887
31328.768147684605,0.19382556,-2.5101607,9.638634,9.96201488020821
31346.845431789738,0.33979294,-2.8020954,9.145695,9.57136013875771
31364.922715894867,0.055036888,-1.7875023,9.913818,10.073826525639102
31383.0,0.2656128,-1.9621847,9.99757,10.19176750428197
31400.768147684605,0.30150643,-2.9073834,9.114587,9.571806545396532
31418.845431789738,-0.09332342,-2.6656997,9.504631,9.87181212328626
31436.922715894867,0.009571632,-1.5984626,10.212932,10.337270158816684
31455.0,0.6197632,-2.7662017,9.514202,9.92753836386247
31472.768147684605,0.24886245,-2.8236315,9.167231,9.595465156738012
31490.845431789738,-0.016750356,-1.7516087,10.0334635,10.185224760316979
31508.922715894867,0.20100428,-1.9502201,9.930569,10.122250827893138
31527.0,0.22971918,-2.895419,9.124159,9.575306759812026
31544.768147684605,-0.16271774,-2.6656997,9.58599,9.951062065608415
31562.845431789738,0.002392908,-1.6415349,10.18661,10.318026257285194
31580.922715894867,0.66283554,-2.864311,9.475916,9.921522690437396
31599.0,0.24168372,-2.7925239,9.105016,9.526694973223414
31616.768147684605,0.011964541,-1.7492158,10.019106,10.170662913716441
31634.845431789738,0.31825677,-2.112938,9.868353,10.097038441845404
31652.922715894867,0.26082698,-2.9073834,9.128944,9.584285445625433
31671.0,0.0,-2.6441634,9.547704,9.907080889823982
31688.768147684605,0.052643977,-1.6463208,10.177038,10.30947360529484
31706.845431789738,0.6221561,-2.9073834,9.507024,9.961097418655173
31724.922715894867,0.17946811,-2.8164527,9.167231,9.591805816487595
31743.0,0.016750356,-1.7300725,10.019106,10.167394772945446
31760.768147684605,0.3517575,-2.237369,9.837245,10.094599673637001
31778.845431789738,0.19621846,-2.8906329,9.109801,9.55943170414477
31796.922715894867,0.023929082,-2.708772,9.60274,9.97750639471353
31815.0,0.069394335,-1.7085364,10.205753,10.348009784536544
31832.768147684605,0.53840435,-2.9337053,9.425665,9.886337376580471
31850.845431789738,0.17228939,-2.7949166,9.17441,9.59223859601929
31868.922715894867,0.06460852,-1.6439278,10.11243,10.245384979461212
31887.0,0.42833054,-2.2301903,9.758279,10.019043111373051
31904.768147684605,0.13400285,-2.8571322,9.13373,9.57111199835134
31922.845431789738,0.15553902,-2.5293038,9.648206,9.97544230186677
31940.922715894867,0.13400285,-1.715715,10.1842165,10.32859624750166
31959.0,0.57429796,-2.895419,9.346699,9.801737168942154
31976.768147684605,0.16032484,-2.732701,9.162445,9.562622924059434
31994.845431789738,-0.004785816,-1.5936768,10.100465,10.225420375863186
32012.922715894867,0.45943835,-2.2756555,9.7415285,10.014343167100037
32031.0,0.19621846,-2.9049904,9.193553,9.64359308929747
32048.768147684605,-0.028714897,-2.555626,9.684099,10.015678820678442
32066.845431789738,0.12921704,-1.7324655,10.126787,10.274723777089369
32084.922715894867,0.5144752,-2.9049904,9.272519,9.730532491126487
32103.0,0.09571633,-2.7255223,9.234232,9.62853436684161
32120.768147684605,-0.0071787243,-1.6152129,10.095679,10.22407446752272
32138.845431789738,0.47618872,-2.3785505,9.674527,9.974002749740672
32156.922715894867,0.18664683,-2.9002047,9.200731,9.648806935337246
32175.0,0.08614469,-2.3976939,9.679314,9.972235278828334
32192.768147684605,0.22014755,-1.8162172,10.088501,10.253046488158915
32210.845431789738,0.42354473,-2.9528487,9.1983385,9.669960534768729
32228.922715894867,0.07418015,-2.7925239,9.294055,9.704800398243657
32247.0,-0.043072347,-1.5649619,10.122002,10.24235741729079
32264.768147684605,0.5025107,-2.4910173,9.638634,9.967996266977119
32282.845431789738,0.22971918,-2.8786685,9.176803,9.620458228970236
32300.922715894867,-0.07657306,-2.3235137,9.767851,10.040691834022518
32319.0,0.21057591,-2.4910173,9.681706,9.999246995309578
32336.768147684605,0.19143265,-2.3737648,9.69367,9.981915840864671
32354.845431789738,0.208183,-2.4311945,9.652991,9.95662001406101
32372.922715894867,0.19143265,-2.4048727,9.636241,9.93363980486369
32391.0,0.22971918,-2.3785505,9.607526,9.900243897166682
32408.768147684605,0.24407662,-2.4359803,9.655384,9.960924334913638
32426.845431789738,0.19861138,-2.4383733,9.626669,9.932666654326994
32444.922715894867,0.13639577,-2.4168372,9.652991,9.951881284634515
32463.0,0.19382556,-2.3450499,9.612311,9.89612803787018
32480.768147684605,0.19143265,-2.342657,9.657777,9.939685350194141
32498.845431789738,0.18903974,-2.3570144,9.650599,9.936061290265254
32516.922715894867,0.22493336,-2.3809435,9.588383,9.88213415823334
32535.0,0.20339718,-2.392908,9.609919,9.90544912136027
32552.768147684605,0.20339718,-2.4048727,9.614705,9.912988215117693
32570.845431789738,0.2584341,-2.3498356,9.652991,9.938246866381975
32588.922715894867,0.22014755,-2.3665862,9.657777,9.945946499329787
32607.0,0.15075321,-2.3737648,9.626669,9.916160642688547
32624.768147684605,0.16032484,-2.340264,9.617098,9.899046094731604
32642.845431789738,0.16989647,-2.3354783,9.684099,9.963187097615418
32660.922715894867,0.2392908,-2.368979,9.593168,9.884239670588206
32679.0,0.21057591,-2.4311945,9.636241,9.940432059059786
32696.768147684605,0.208183,-2.4383733,9.626669,9.93286265621361
32714.845431789738,0.19382556,-2.4072654,9.636241,9.934265733501771
32732.922715894867,0.33500713,-2.3594074,9.652991,9.942799822102756
32751.0,0.30629224,-2.3618002,9.574025,9.865792913984627
32768.768147684605,0.16750357,-2.4120514,9.633848,9.932626877584234
32786.845431789734,0.08614469,-2.3570144,9.681706,9.964856690382385
32804.92271589487,0.067001425,-2.3091564,9.626669,9.899972146737282
32823.0,0.15553902,-2.3450499,9.66017,9.941948292418976
32840.768147684605,0.22493336,-2.3785505,9.657777,9.948907180148991
32858.845431789734,0.16989647,-2.3546216,9.681706,9.96536696565365
32876.92271589487,0.16032484,-2.3857293,9.6003475,9.893638383726977
32895.0,0.2632199,-2.3833365,9.643419,9.937057290644411
32912.768147684605,0.40200856,-2.395301,9.612311,9.914413776095653
32930.845431789734,0.40679437,-2.4646955,9.607526,9.926971411657231
32948.92271589487,0.21775463,-2.4479449,9.58599,9.896012105511112
32967.0,0.09810923,-2.395301,9.557275,9.85335464333022
32984.768147684605,0.040679436,-2.3570144,9.636241,9.920398797850904
33002.845431789734,0.11246668,-2.3043704,9.698457,9.969094235453658
33020.92271589487,0.19382556,-2.3043704,9.727171,9.998277199165187
33039.0,0.24407662,-2.3618002,9.664956,9.952338823768345
33056.768147684605,0.19861138,-2.3976939,9.60274,9.899545344406617
33074.845431789734,0.22493336,-2.4311945,9.605133,9.910594415117599
33092.92271589487,0.25125536,-2.4048727,9.593168,9.893200404083505
33111.0,0.26082698,-2.3857293,9.629062,9.923636934421694
33128.768147684605,0.23211208,-2.3570144,9.648206,9.93465006519733
33146.845431789734,0.20100428,-2.392908,9.6912775,9.984351305871032
33164.92271589487,0.12443122,-2.3641932,9.624276,9.911184648648865
33183.0,0.16511066,-2.3665862,9.655384,9.942556610828628
33200.768147684605,0.16032484,-2.3211207,9.669742,9.945713433678526
33218.845431789734,0.21296883,-2.3522286,9.60274,9.88893071149806
33236.92271589487,0.23211208,-2.424016,9.657777,9.960039466170148
33255.0,0.21296883,-2.4144442,9.574025,9.876074686741196
33272.768147684605,0.2632199,-2.395301,9.650599,9.946899650401527
33290.845431789734,0.19143265,-2.41923,9.633848,9.934804856638607
33308.92271589487,0.21536173,-2.3737648,9.621883,9.912707625374443
33327.0,0.1483603,-2.3330853,9.629062,9.9087906827996
33344.768147684605,0.12443122,-2.3139422,9.624276,9.899318166299512
33362.845431789734,0.20339718,-2.3809435,9.662563,9.953661943827166
33380.92271589487,0.31586388,-2.3737648,9.605133,9.899146895773226
33399.0,0.27518442,-2.421623,9.54531,9.851544417767183
33416.768147684605,0.12682413,-2.471874,9.588383,9.902693269334119
33434.845431789734,0.14357449,-2.392908,9.597955,9.892793463560622
33452.92271589487,0.23211208,-2.3043704,9.595561,9.871108846669612
33471.0,0.20100428,-2.3450499,9.731957,10.012524596919466
33488.768147684605,0.2057901,-2.3761578,9.729565,10.017629986428119
33506.845431789734,0.22014755,-2.3594074,9.58599,9.874536571558474
33524.92271589487,0.19382556,-2.392908,9.6912775,9.984209364099872
33543.0,0.18903974,-2.4024796,9.681706,9.977127608793596
33560.768147684605,0.2057901,-2.4168372,9.631455,9.93218893465015
33578.845431789734,0.30868515,-2.3665862,9.645813,9.936685825506911
33596.92271589487,0.27757734,-2.3641932,9.60274,9.893385374795006
33615.0,0.16989647,-2.443159,9.58599,9.89389180201095
33632.768147684605,0.13400285,-2.4072654,9.621883,9.919350580332075
33650.845431789734,0.1459674,-2.3546216,9.605133,9.890608136446328
33668.92271589487,0.19861138,-2.342657,9.650599,9.932852025411206
33687.0,0.16989647,-2.3139422,9.67692,9.951179528169478
33704.768147684605,0.208183,-2.3665862,9.638634,9.927101076823758
33722.845431789734,0.15793194,-2.3761578,9.626669,9.916845487539574
33740.92271589487,0.25364825,-2.4000869,9.626669,9.924591205578226
33759.0,0.25364825,-2.450338,9.56206,9.874284034428626
33776.768147684605,0.24646953,-2.424016,9.609919,9.91398728988672
33794.845431789734,0.2057901,-2.41923,9.578811,9.881732820304292
33812.92271589487,0.18664683,-2.3785505,9.593168,9.885403977401394
33831.0,0.12443122,-2.318728,9.626669,9.902764195014223
33848.768147684605,0.14357449,-2.3330853,9.715207,9.992454538505735
33866.845431789734,0.1459674,-2.316335,9.729565,10.002557143216565
33884.92271589487,0.19621846,-2.3522286,9.681706,9.965285351716664
33903.0,0.18664683,-2.3522286,9.597955,9.883752152286702
33920.768147684605,0.16032484,-2.3785505,9.605133,9.896554273233702
33938.845431789734,0.2057901,-2.3785505,9.581204,9.874174504024337
33956.92271589487,0.22254045,-2.450338,9.624276,9.933799328067092
33975.0,0.27757734,-2.445552,9.619491,9.929369610577828
33992.768147684605,0.21775463,-2.395301,9.633848,9.92954738377291
34010.845431789734,0.21296883,-2.3665862,9.636241,9.924879171791614
34028.92271589487,0.17228939,-2.4024796,9.672134,9.967535702282623
34047.0,0.2680057,-2.3833365,9.605133,9.900035347166884
34064.768147684605,0.22254045,-2.450338,9.619491,9.929163492722395
34082.845431789734,0.25604117,-2.4407663,9.593168,9.902109345395791
34100.92271589487,0.22732627,-2.445552,9.574025,9.884045554243523
34119.0,0.17707519,-2.4551237,9.638634,9.947977351762077
34136.768147684605,0.22014755,-2.3857293,9.633848,9.927295529183843
34154.845431789734,0.1483603,-2.3522286,9.729565,10.0109652508886
34172.92271589487,0.208183,-2.3354783,9.645813,9.926706779301426
34191.0,0.21775463,-2.3641932,9.688885,9.975536031163323
34208.768147684605,0.23211208,-2.4383733,9.566847,9.87542920025473
34226.845431789734,0.28714898,-2.424016,9.5907755,9.896528825622209
34244.92271589487,0.1459674,-2.555626,9.724778,10.05603489865776
34263.0,0.39722276,-2.2995846,9.425665,9.710254164842658
34280.768147684605,-0.016750356,-2.2947989,9.535739,9.807991682397999
34298.845431789734,-0.99305683,-2.9241338,10.011928,10.47737670531589
34316.92271589487,1.2682413,-1.9334698,9.973641,10.238176412790452
34335.0,-0.42833054,-2.0196145,9.016478,9.249820825539862
34352.768147684605,0.7346228,-2.3378713,9.583597,9.891948459836035
34370.845431789734,0.3230426,-2.658521,10.023892,10.375475953252446
34388.92271589487,-0.10289505,-2.1919038,9.45438,9.705685490688895
34407.0,-0.5431901,-2.0555081,9.746315,9.97551127076345
34424.768147684605,0.27997026,-2.471874,9.645813,9.961438292201056
34442.845431789734,-0.43550926,-2.9097762,9.581204,10.022770871333345
34460.92271589487,-0.105287954,-2.7159507,9.964069,10.328123972670399
34479.0,0.44747382,-2.0172215,9.368236,9.593396747312374
34496.768147684605,0.11485959,-2.132081,9.782208,10.012519936121974
34514.845431789734,-0.18186101,-2.134474,9.937747,10.16601535114143
34532.92271589487,0.6293348,-1.9741492,9.56206,9.783982767664286
34551.0,-0.35893622,-2.4551237,9.365842,9.688935130410028
34568.768147684605,0.4139731,-2.4479449,9.703242,10.015823144980327
34586.845431789734,0.55036885,-1.7898953,9.554882,9.736652458105732
34604.92271589487,0.16032484,-1.9167194,9.325163,9.521459042039009
34623.0,0.5001178,-1.6439278,8.954262,9.117643576611979
34640.768147684605,-0.7346228,-2.4814458,10.5766535,10.888656628605741
34658.845431789734,0.7896597,-3.1107805,9.846817,10.356655965729157
34676.92271589487,0.7992313,-3.0605295,10.028678,10.515702255149389
34695.0,0.06460852,-2.2732627,9.325163,9.598466676539378
34712.768147684605,1.0480938,-2.28762,9.526167,9.852896203141867
34730.845431789734,0.19621846,-2.1751535,9.810924,10.05107079700382
34748.92271589487,0.1172525,-2.5963054,9.770244,10.110005820886624
34767.0,0.38765112,-2.5221252,9.786994,10.11418016802886
34784.768147684605,0.2057901,-2.21344,9.56924,9.824053154195473
34802.845431789734,0.46661708,-2.1942968,9.523774,9.784423393788412
34820.92271589487,0.8159817,-2.2708697,9.976034,10.263719096812276
34839.0,0.55754757,-3.3381069,9.767851,10.337539848863535
34856.768147684605,0.19861138,-3.7903664,10.337363,11.012147734219853
34874.845431789734,-0.10289505,-3.7544727,9.894675,10.583536554573087
34892.92271589487,-0.107680865,-3.01985,9.557275,10.02360187840739
34911.0,0.12921704,-1.4620669,8.262712,8.392064481308873
34928.768147684605,-0.57429796,-1.9645776,8.798723,9.033654284065276
34946.845431789734,-0.3613291,-1.2586696,9.779816,9.86709728716237
34964.92271589487,0.0071787243,-2.8260245,10.342149,10.72131111137457
34983.0,0.8518753,-2.6680925,8.92794,9.356950451878342
35000.768147684605,0.43072346,-3.0892444,10.471366,10.926045010335704
35018.845431789734,0.61497736,-2.8475606,9.796566,10.22054323000206
35036.92271589487,0.055036888,-2.4934103,9.839638,10.150793070210367
35055.0,0.17228939,-1.9095407,9.351485,9.546009691179245
35072.768147684605,-0.2057901,-1.8257889,9.15048,9.33312053404547
35090.845431789734,0.21057591,-2.2086542,9.578811,9.832401322300212
35108.92271589487,0.2368979,-2.6106627,9.803744,10.14815632347727
35127.0,0.26082698,-2.7039862,9.810924,10.180068851292821
35144.768147684605,0.20100428,-2.5867336,9.703242,10.044127575280557
35162.845431789734,0.2392908,-2.3665862,9.564454,9.855798833535061
35180.92271589487,0.16032484,-2.239762,9.423272,9.687119956775028
35199.0,0.13639577,-2.268477,9.578811,9.844704763441303
35216.768147684605,0.15075321,-2.4144442,9.703242,10.000258628445714
35234.845431789734,0.1459674,-2.5077677,9.753493,10.071783904556087
35252.92271589487,0.16750357,-2.41923,9.657777,9.957579415731102
35271.0,0.19861138,-2.342657,9.605133,9.888683848096445
35288.768147684605,0.15793194,-2.316335,9.547704,9.825935171855814
35306.845431789734,0.19143265,-2.4120514,9.588383,9.888969965088224
35324.92271589487,0.17946811,-2.471874,9.657777,9.970708422981387
35343.0,0.22254045,-2.445552,9.662563,9.969722792814212
35360.768147684605,0.18425392,-2.395301,9.617098,9.91261773343653
35378.845431789734,0.15314612,-2.3857293,9.574025,9.867984228178242
35396.92271589487,0.18425392,-2.3785505,9.566847,9.859818127607355
35415.0,0.2057901,-2.4096584,9.629062,9.928123597628737
35432.768147684605,0.16511066,-2.3857293,9.672134,9.963390082541189
35450.845431789734,0.18186101,-2.4000869,9.643419,9.939266600915323
35468.92271589487,0.25364825,-2.3976939,9.6003475,9.898481984303528
35487.0,0.18903974,-2.4359803,9.597955,9.904063621933796
35504.768147684605,0.19861138,-2.4623024,9.631455,9.94320396081345
35522.845431789734,0.13639577,-2.4311945,9.607526,9.911299932076526
35540.92271589487,0.12682413,-2.3761578,9.662563,9.9512478604153
35559.0,0.16750357,-2.3091564,9.629062,9.903489068276276
35576.768147684605,0.17468229,-2.2971919,9.605133,9.877559641710814
35594.845431789734,0.15553902,-2.395301,9.6410265,9.935343539155847
35612.92271589487,0.22014755,-2.445552,9.650599,9.958074642584076
35631.0,0.22732627,-2.4359803,9.588383,9.895593252034423
35648.768147684605,0.19621846,-2.4288018,9.614705,9.918675924978748
35666.845431789734,0.17228939,-2.4096584,9.626669,9.92516464720652
35684.92271589487,0.12921704,-2.3665862,9.619491,9.907170856734924
35703.0,0.14118157,-2.3330853,9.655384,9.934266930188647
35720.768147684605,0.20339718,-2.340264,9.698457,9.978891430583706
35738.845431789734,0.17228939,-2.3809435,9.657777,9.948428627970742
35756.92271589487,0.1483603,-2.4168372,9.609919,9.910280319773046
35775.0,0.2057901,-2.4383733,9.597955,9.904986324949466
35792.768147684605,0.21057591,-2.4335876,9.595561,9.901589858475612
35810.845431789734,0.19382556,-2.445552,9.564454,9.874060626233227
35828.92271589487,0.208183,-2.4072654,9.66017,9.957768389374507
35847.0,0.13639577,-2.371372,9.614705,9.903765001527596
35864.768147684605,0.14118157,-2.342657,9.686492,9.9667497872386
35882.845431789734,0.12921704,-2.3618002,9.624276,9.910675342897799
35900.92271589487,0.13639577,-2.4264088,9.648206,9.949569965040064
35919.0,0.17468229,-2.4096584,9.593168,9.892716501717524
35936.768147684605,0.2057901,-2.445552,9.5907755,9.899800444522215
35954.845431789734,0.18664683,-2.3809435,9.571632,9.865083280579302
35972.92271589487,0.23211208,-2.4072654,9.595561,9.89563507959141
35991.0,0.15314612,-2.424016,9.655384,9.956191414882653
36008.768147684605,0.18664683,-2.4311945,9.626669,9.930674688637238
36026.845431789734,0.16750357,-2.371372,9.617098,9.906565325578324
36044.92271589487,0.19143265,-2.368979,9.652991,9.941274727519001
36063.0,0.17707519,-2.3665862,9.574025,9.863774154225602
36080.768147684605,0.14118157,-2.3665862,9.672134,9.958455632862663
36098.845431789734,0.15314612,-2.445552,9.597955,9.905802264370115
36116.92271589487,0.19861138,-2.4144442,9.605133,9.9059359589525
36135.0,0.12682413,-2.4120514,9.633848,9.93202414431702
36152.768147684605,0.14357449,-2.4096584,9.648206,9.945599341281817
36170.845431789734,0.18186101,-2.3881223,9.645813,9.938707661345338
36188.92271589487,0.13878867,-2.3594074,9.679314,9.963693345576786
36207.0,0.16271774,-2.3306925,9.6410265,9.920080471758746
36224.768147684605,0.11485959,-2.3618002,9.703242,9.987201721237987
36242.845431789734,0.20339718,-2.4311945,9.578811,9.884619228042283
36260.92271589487,0.22493336,-2.4407663,9.6003475,9.908310010713876
36279.0,0.22254045,-2.445552,9.619491,9.927983477810145
36296.768147684605,0.15553902,-2.3618002,9.684099,9.969155732220436
36314.845431789734,0.13160995,-2.3522286,9.645813,9.92935088495547
36332.92271589487,0.15553902,-2.371372,9.652991,9.941218878749606
36351.0,0.105287954,-2.3546216,9.593168,9.87847157756037
36368.768147684605,0.18664683,-2.4383733,9.566847,9.87446519618713
36386.845431789734,0.15075321,-2.4646955,9.578811,9.891970006614788
36404.92271589487,0.17228939,-2.390515,9.645813,9.939112336124419
36423.0,0.22014755,-2.4072654,9.626669,9.925530095937907
36440.768147684605,0.21775463,-2.4024796,9.705635,10.000933759431044
36458.845431789734,0.13400285,-2.3665862,9.624276,9.911880524401743
36476.92271589487,0.12443122,-2.3761578,9.621883,9.911722427746883
36495.0,0.14118157,-2.41923,9.581204,9.882918400868423
36512.768147684605,0.23211208,-2.4168372,9.626669,9.9281284290921
36530.845431789734,0.19621846,-2.4168372,9.621883,9.92271314717087
36548.92271589487,0.14357449,-2.4144442,9.652991,9.95140139252625
36567.0,0.19143265,-2.3522286,9.669742,9.953569017830135
36584.768147684605,0.17946811,-2.3665862,9.643419,9.931186689117187
36602.845431789734,0.15793194,-2.3618002,9.614705,9.901797560009859
36620.92271589487,0.08135887,-2.3976939,9.621883,9.91646044561838
36639.0,0.15075321,-2.4623024,9.583597,9.896008846892775
36656.768147684605,0.17946811,-2.4144442,9.612311,9.912531077285035
36674.845431789734,0.2392908,-2.4264088,9.576418,9.881928023539034
36692.92271589487,0.15793194,-2.4000869,9.655384,9.950467316296244
36711.0,0.17468229,-2.3833365,9.633848,9.925816543830331
36728.768147684605,0.15553902,-2.371372,9.652991,9.941218878749606
36746.845431789734,0.16989647,-2.4000869,9.617098,9.91351884447062
36764.92271589487,0.14357449,-2.4168372,9.636241,9.935736323774076
36783.0,0.18425392,-2.41923,9.66017,9.960196169194429
36800.768147684605,0.18903974,-2.4144442,9.645813,9.945199105557512
36818.845431789734,0.19382556,-2.4000869,9.655384,9.951101731100778
36836.92271589487,0.17946811,-2.3761578,9.60274,9.893985556923349
36855.0,0.18186101,-2.4096584,9.657777,9.955510213614257
36872.768147684605,0.16989647,-2.3618002,9.588383,9.876439315356903
36890.845431789734,0.17946811,-2.3881223,9.612311,9.906152617590003
36908.92271589487,0.13639577,-2.4168372,9.612311,9.91242798804101
36927.0,0.15553902,-2.4048727,9.657777,9.953906854681575
36944.768147684605,0.17228939,-2.4072654,9.626669,9.924583939667432
36962.845431789734,0.16032484,-2.3761578,9.571632,9.863466382983512
36980.92271589487,0.2057901,-2.3546216,9.617098,9.903290684719327
36999.0,0.17707519,-2.4288018,9.648206,9.950794582596547
37016.768147684605,0.19861138,-2.4311945,9.6410265,9.944825043750042
37034.845431789734,0.17228939,-2.390515,9.652991,9.946078666751665
37052.92271589487,0.15793194,-2.3785505,9.597955,9.889549290071182
37071.0,0.15793194,-2.3809435,9.583597,9.876191872694324
37088.768147684605,0.1459674,-2.3881223,9.645813,9.938115668102734
37106.845431789734,0.19143265,-2.4407663,9.645813,9.951667951739081
37124.92271589487,0.16032484,-2.452731,9.607526,9.916962703033526
37143.0,0.22254045,-2.3857293,9.648206,9.941282993819293
37160.768147684605,0.15553902,-2.4048727,9.626669,9.923727179115156
37178.845431789734,0.12921704,-2.4120514,9.605133,9.904204609526063
37196.92271589487,0.19382556,-2.4024796,9.571632,9.870441515937848
37215.0,0.16989647,-2.4335876,9.667349,9.970398693392017
37232.768147684605,0.16032484,-2.4359803,9.612311,9.917470788312416
37250.845431789734,0.17946811,-2.4575167,9.629062,9.939337610380777
37268.92271589487,0.17468229,-2.4048727,9.617098,9.91476174939413
37287.0,0.31586388,-2.6250203,9.775029,10.126287252341884
37304.768147684605,0.09093051,-2.3139422,9.564454,9.840801653356584
37322.845431789734,0.0598227,-2.1560102,9.521381,9.76261516629127
37340.92271589487,0.11485959,-2.2780485,9.571632,9.839656337351991
37359.0,0.15314612,-2.4048727,9.705635,10.000310854693534
37376.768147684605,0.09093051,-2.4168372,9.672134,9.96993212228191
37394.845431789734,0.24168372,-2.3976939,9.459166,9.761309772472455
37412.92271589487,0.06221561,-2.5077677,9.763065,10.080188877869103
37431.0,0.21775463,-2.424016,9.612311,9.915633787502614
37448.768147684605,0.13160995,-2.4096584,9.70085,9.996512667231986
37466.845431789734,0.20339718,-2.3354783,9.552489,9.835948118901596
37484.92271589487,0.1459674,-2.3641932,9.629062,9.916125804397248
37503.0,0.21296883,-2.4288018,9.669742,9.972379066842516
37520.768147684605,0.17228939,-2.4407663,9.655384,9.960595562142771
37538.845431789734,0.13160995,-2.4072654,9.609919,9.907713715663022
37556.92271589487,0.09571633,-2.3881223,9.574025,9.867838893912435
37575.0,0.12203831,-2.3618002,9.595561,9.882701272352044
37592.768147684605,0.16271774,-2.4096584,9.593168,9.892512468722254
37610.845431789734,0.1483603,-2.4264088,9.633848,9.935818926008945
37628.92271589487,0.17468229,-2.4048727,9.652991,9.949580988751533
37647.0,0.19621846,-2.3761578,9.633848,9.92449771331777
37664.768147684605,0.17228939,-2.3618002,9.574025,9.862542193534669
37682.845431789734,0.22014755,-2.4144442,9.6410265,9.94119699595511
37700.92271589487,0.19143265,-2.3546216,9.650599,9.935539763770944
37719.0,0.21536173,-2.4288018,9.636241,9.939949671326955
37736.768147684605,0.12921704,-2.4096584,9.629062,9.926831601672355
37754.845431789734,0.08135887,-2.371372,9.652991,9.940334988026947
37772.92271589487,0.12921704,-2.3498356,9.612311,9.896208726132182
37791.0,0.15793194,-2.3618002,9.58599,9.873917508390083
37808.768147684605,0.15314612,-2.4335876,9.636241,9.939966949191824
37826.845431789734,0.12443122,-2.3833365,9.6410265,9.932027384902097
37844.92271589487,0.16989647,-2.392908,9.633848,9.928036099555968
37863.0,0.15314612,-2.371372,9.643419,9.931887479528553
37880.768147684605,0.13400285,-2.390515,9.6410265,9.93387692206499
37898.845431789734,0.110073775,-2.3881223,9.636241,9.928362652813457
37916.92271589487,0.19382556,-2.3833365,9.655384,9.947075017682211
37935.0,0.15793194,-2.3833365,9.597955,9.89070146915422
37952.768147684605,0.15075321,-2.3881223,9.578811,9.873169441663785
37970.845431789734,0.16989647,-2.4623024,9.593168,9.905587826867633
37988.92271589487,0.2392908,-2.4264088,9.626669,9.930633201727021
38007.0,0.21057591,-2.4694812,9.633848,9.947547783153885
38024.768147684605,0.13160995,-2.4623024,9.617098,9.928183531220037
38042.845431789734,0.05025107,-2.41923,9.679314,9.977189908663268
38060.92271589487,0.12443122,-2.3282995,9.621883,9.900358284218806
38079.0,0.16271774,-2.3091564,9.712814,9.984860346603135
38096.768147684605,0.12682413,-2.3785505,9.643419,9.933232950583687
38114.845431789734,0.22014755,-2.4168372,9.664956,9.964985774049598
38132.92271589487,0.27757734,-2.4790528,9.564454,9.884408544924947
38151.0,0.3565433,-2.495803,9.619491,9.944383482079967
38168.768147684605,0.37090075,-2.445552,9.583597,9.897657470809119
38186.845431789734,-0.2632199,-2.9648132,9.715207,10.160937411454675
38204.92271589487,1.3065279,-2.005257,10.634084,10.900083178975443
38223.0,-0.6819788,-1.7827165,8.636005,8.844419458791329
38240.768147684605,-0.07418015,-1.8832186,9.463951,9.649786708546515
38258.845431789734,0.41875893,-2.5101607,10.062179,10.379003420816483
38276.92271589487,0.22971918,-2.7733805,9.944926,10.326953250834253
38295.0,0.20100428,-2.6896286,9.763065,10.128768085050682
38312.768147684605,0.27279153,-2.8308103,9.246197,9.673678779876601
38330.845431789734,-0.31825677,-1.4644598,9.815709,9.929454821396183
38348.92271589487,0.31825677,-2.237369,9.478309,9.743995531264002
38367.0,0.5934412,-2.8595252,9.217482,9.669076028639784
38384.768147684605,0.1459674,-2.6345918,9.822887,10.171110531759007
38402.845431789734,-0.18425392,-1.9167194,10.119608,10.3011760900897
38420.92271589487,0.34218585,-2.9743848,9.262947,9.73479548933722
38439.0,0.28475606,-2.6321988,9.2485895,9.620081302979637
38456.768147684605,-0.2584341,-1.5529974,9.995177,10.118406612198314
38474.845431789734,0.4139731,-2.5053747,9.684099,10.011495870084785
38492.92271589487,0.37090075,-2.8284173,9.401736,9.824975908519361
38511.0,0.16271774,-2.2014754,9.775029,10.021185705821287
38528.768147684605,-0.011964541,-1.9956853,9.971248,10.169006325319176
38546.845431789734,0.37090075,-2.9097762,9.0571575,9.520318633335927
38564.92271589487,0.13639577,-2.6489491,9.495059,9.858584104928338
38583.0,-0.24168372,-1.6846073,10.119608,10.261714225673522
38600.768147684605,0.31586388,-2.526911,9.729565,10.057309992330685
38618.845431789734,0.28236315,-2.7566302,9.30602,9.709827354203059
38636.92271589487,-0.12682413,-1.5386399,9.995177,10.113706559078688
38655.0,-0.028714897,-1.8927903,9.94014,10.118787619309133
38672.768147684605,0.37568656,-3.0102785,9.219875,9.706132703324837
38690.845431789734,0.2919348,-2.9241338,9.461558,9.907414607006082
38708.92271589487,0.040679436,-1.9215052,10.050214,10.232332993796495
38727.0,0.4977249,-2.6513422,9.52856,9.903070292145808
38744.768147684605,0.34218585,-2.8164527,9.234232,9.660255565827518
38762.845431789734,-0.15314612,-1.5841051,9.964069,10.090367373821335
38780.92271589487,-0.047858164,-1.9095407,10.007142,10.187812674808168
38799.0,0.2943277,-2.914562,9.262947,9.715116446633067
38816.768147684605,0.004785816,-2.5891266,9.557275,9.901772815031022
38834.845431789734,-0.14357449,-1.665464,10.107644,10.244942713368912
38852.92271589487,0.57908374,-2.7685947,9.485488,9.898228992549347
38871.0,0.3804724,-2.8451676,9.291662,9.72495350330764
38888.768147684605,-0.07657306,-1.7875023,9.978427,10.13755558802772
38906.845431789734,0.08614469,-2.029186,9.949712,10.15488973909393
38924.92271589487,0.30629224,-2.8834543,9.143302,9.592085023584637
38943.0,-0.05025107,-2.526911,9.5405245,9.869620666826936
38960.768147684605,-0.19861138,-1.5721406,10.131573,10.254747388442237
38978.845431789734,0.5001178,-2.81406,9.516596,9.936531131370385
38996.92271589487,0.3326142,-2.7805593,9.231839,9.64722724666415
39015.0,-0.17468229,-1.6846073,10.040643,10.182481402443214
39032.768147684605,0.052643977,-2.0674727,9.904246,10.117870506291117
39050.845431789734,0.31107804,-2.9097762,9.143302,9.600184297411205
39068.92271589487,0.25125536,-2.4886243,9.511809,9.83518635385015
39087.0,0.11485959,-1.8736471,10.007142,10.181681451946794
39104.768147684605,0.55036885,-2.8906329,9.451987,9.899430422089027
39122.845431789734,0.2967206,-2.7757733,9.279697,9.690497249329688
39140.92271589487,-0.208183,-1.7085364,9.98082,10.128139249833305
39159.0,0.12203831,-2.0674727,9.784601,10.001387575909352
39176.768147684605,0.2991135,-2.8786685,9.193553,9.638341038922803
39194.845431789734,0.069394335,-2.3761578,9.595561,9.885632623608462
39212.92271589487,-0.040679436,-1.74443,10.102858,10.252435350177892
39231.0,0.5240469,-2.9480627,9.47113,9.933176848996041
39248.768147684605,0.31347096,-2.7973096,9.231839,9.651427685215099
39266.845431789734,-0.1196454,-1.6726427,10.021499,10.160831207662365
39284.92271589487,0.3254355,-2.3330853,9.755886,10.036259608376636
39303.0,0.15793194,-2.7446656,9.349092,9.744929603540475
39320.768147684605,0.22014755,-2.5843408,9.621883,9.96533565817051
39338.845431789734,0.1172525,-2.424016,9.5907755,9.893056979943687
39356.92271589487,0.15075321,-2.4048727,9.650599,9.946868868761243
39375.0,0.36850783,-2.7566302,9.368236,9.772341266657614
39392.768147684605,-0.107680865,-1.6678569,10.031071,10.169352349810964
39410.845431789734,0.416366,-2.5484471,9.6410265,9.980848422912587
39428.92271589487,0.27039862,-2.8212388,9.274912,9.698272855929934
39447.0,0.19621846,-2.0937946,9.794173,10.01739997529114
39464.768147684605,0.07896597,-1.8640754,9.995177,10.167820611253534
39482.845431789734,0.39243692,-2.967206,9.205518,9.679869825102974
39500.92271589487,0.22732627,-2.6848428,9.363449,9.74342010124499
39519.0,-0.21296883,-1.5817122,10.069357,10.195053683018516
39536.768147684605,0.5049036,-2.553233,9.664956,10.00926075589591
39554.845431789734,0.33979294,-2.8427749,9.155267,9.592483631230905
39572.92271589487,0.1483603,-2.1799393,9.73435,9.976558327038466
39591.0,0.069394335,-1.9980782,9.973641,10.172052244455214
39608.768147684605,0.42354473,-2.9863493,9.205518,9.68706528976889
39626.845431789734,0.17707519,-2.6513422,9.444808,9.811491692973009
39644.92271589487,-0.21057591,-1.5123179,10.11243,10.227056670882035
39663.0,0.50968945,-2.6537352,9.574025,9.948067578569486
39680.768147684605,0.24646953,-2.8571322,9.172017,9.609882802916188
39698.845431789734,-0.08375178,-2.0985804,9.889889,10.110438095762138
39716.92271589487,0.12443122,-1.9885067,9.880318,10.0792026373905
39735.0,0.52165395,-2.9289196,9.200731,9.669754071390635
39752.768147684605,0.08614469,-2.6872358,9.45438,9.829239967404236
39770.845431789734,-0.23211208,-1.6080343,10.14593,10.275190795919967
39788.92271589487,0.49293905,-2.7566302,9.5500965,9.952202878050628
39807.0,0.24168372,-2.8595252,9.200731,9.637880800482494
39824.768147684605,-0.12921704,-1.7300725,10.002356,10.151698057439386
39842.845431789734,0.15553902,-2.0531151,9.863567,10.076181219295313
39860.92271589487,0.39004403,-2.9624202,9.205518,9.678307157505937
39879.0,0.002392908,-2.6633067,9.504631,9.870725340644151
39896.768147684605,-0.14357449,-1.61282,10.160288,10.288501068159674
39914.845431789734,0.4737958,-2.8092742,9.502238,9.920132609976909
39932.92271589487,0.30389932,-2.8092742,9.217482,9.640868775572361
39951.0,-0.026321989,-1.6750357,9.990392,10.12987511063406
39968.768147684605,0.13878867,-2.1584032,9.86596,10.100254125035201
39986.845431789734,0.24168372,-2.9289196,9.172017,9.631348653852491
40004.92271589487,-0.0071787243,-2.6369848,9.490273,9.84982344938439
40023.0,-0.107680865,-1.6152129,10.141145,10.269534059149839
40040.768147684605,0.5647263,-2.8308103,9.509417,9.937877762801612
40058.845431789734,0.37090075,-2.811667,9.217482,9.643910674905879
40076.92271589487,-0.0071787243,-1.6439278,10.01432,10.148357266478916
40095.0,0.2057901,-2.2277975,9.82528,10.076783134744154
40112.768147684605,0.21775463,-2.8690968,9.076301,9.521469076211805
40130.845431789734,-0.069394335,-2.60827,9.633848,9.980927574816587
40148.92271589487,-0.088537596,-1.5745336,10.1435375,10.265395656151822
40167.0,0.56711924,-2.8786685,9.466345,9.910602616606894
40184.768147684605,0.38765112,-2.8092742,9.222268,9.648446609970275
40202.845431789734,-0.23211208,-1.6247846,9.999963,10.133758484168057
40220.92271589487,0.33500713,-2.3091564,9.834852,10.107855703299084
40239.0,0.2632199,-2.916955,9.064336,9.52575972343818
40256.768147684605,-0.10289505,-2.6656997,9.715207,10.074809642605839
40274.845431789734,-0.045465253,-1.5912839,10.117215,10.241693751321339
40292.92271589487,0.5814767,-2.916955,9.490273,9.945452389871306
40311.0,0.3326142,-2.7518444,9.183981,9.593163545786863
40328.768147684605,-0.22014755,-1.588891,10.040643,10.167966925944487
40346.845431789734,0.3565433,-2.340264,9.794173,10.076198860105922
40364.92271589487,0.1196454,-2.5651975,9.535739,9.875468166718395
40383.0,0.25604117,-2.4981961,9.597955,9.921052414780158
40400.768147684605,0.19143265,-2.4814458,9.643419,9.959405089029397
40418.845431789734,0.17468229,-2.3570144,9.638634,9.924177354834152
40436.92271589487,0.5336185,-2.9193478,9.239018,9.70395764032547
40455.0,0.21775463,-2.4551237,9.332341,9.652338473213064
40472.768147684605,-0.12921704,-1.5314612,10.0932865,10.209627947266934
40490.845431789734,0.571905,-2.6896286,9.56206,9.94958133684845
40508.92271589487,0.23211208,-2.9097762,9.272519,9.721125560197718
40527.0,-0.14357449,-2.3833365,9.753493,10.041490537139396
40544.768147684605,0.028714897,-1.7516087,10.050214,10.201752742985953
40562.845431789734,0.42593765,-2.988742,9.217482,9.69927708876159
40580.92271589487,0.24886245,-2.6920216,9.459166,9.837923268121305
40599.0,-0.11485959,-1.4620669,10.138752,10.244272763988402
40616.768147684605,0.6269419,-2.7925239,9.487881,9.910152962906668
40634.845431789734,0.28954187,-2.9241338,9.241411,9.697322839098765
40652.92271589487,-0.13160995,-2.4311945,9.798959,10.096911674341332
40671.0,0.035893623,-1.8592896,9.999963,10.1714063024839
40688.768147684605,0.3254355,-2.940884,9.193553,9.657956498655668
40706.845431789734,0.110073775,-2.6752713,9.526167,9.895304466080638
40724.92271589487,-0.110073775,-1.5027462,10.196181,10.306913668131608
40743.0,0.5934412,-2.8523464,9.478309,9.915966616670882
40760.768147684605,0.2656128,-2.9121692,9.279697,9.729545519743535
40778.845431789734,-0.18186101,-2.1512244,9.827674,10.062008551794694
40796.92271589487,0.2368979,-1.952613,9.932961,10.125834897444973
40815.0,0.4402951,-2.8786685,9.1480875,9.600421710301717
40832.768147684605,0.06221561,-2.6369848,9.547704,9.905362754042615
40850.845431789734,-0.09571633,-1.5123179,10.102858,10.215870340536487
40868.92271589487,0.5312256,-2.8236315,9.425665,9.853844740917761
40887.0,0.30629224,-2.7997024,9.286877,9.704547020751612
40904.768147684605,-0.30629224,-1.7276796,9.954497,10.107952426656418
40922.845431789734,0.20339718,-1.9861137,9.930569,10.12927532975191
40940.92271589487,0.34457877,-2.885847,9.131337,9.5827012289705
40959.0,-0.043072347,-2.6226273,9.554882,9.908370159400857
40976.768147684605,-0.07896597,-1.4979604,10.12918,10.239648844408006
40994.845431789734,0.5838696,-2.8547394,9.444808,9.884069956681838
41012.92271589487,0.3828653,-2.732701,9.210303,9.61477622959339
41031.0,-0.3278284,-1.6750357,10.038249,10.182320906459491
41048.768147684605,0.21296883,-2.0698655,9.906639,10.12280569738266
41066.845431789734,0.208183,-2.8930259,9.126552,9.576371464613505
41084.92271589487,-0.026321989,-2.6178415,9.731957,10.077935007533842
41103.0,0.071787246,-1.5290682,10.160288,10.274952808255788
41120.768147684605,0.57669085,-2.8930259,9.43763,9.887923503519055
41138.845431789734,0.31107804,-2.7949166,9.272519,9.6895787810042
41156.92271589487,-0.40679437,-1.7348584,9.94014,10.098593889602366
41175.0,0.2967206,-2.2230117,9.830067,10.082660430525777
41192.768147684605,0.21296883,-2.861918,9.1480875,9.587671003373647
41210.845431789734,0.016750356,-2.5986981,9.681706,10.024417362610444
41228.92271589487,-0.002392908,-1.5506045,10.12918,10.247178514782933
41247.0,0.5934412,-2.9002047,9.447201,9.900149821803735
41264.768147684605,0.33979294,-2.7566302,9.1480875,9.560437971624633
41282.845431789734,-0.19143265,-1.6152129,10.088501,10.218777402351686
41300.92271589487,0.34457877,-2.4096584,9.901854,10.1966612560554
41319.0,0.23211208,-2.8595252,8.994942,9.441384536734057
41336.768147684605,-0.014357449,-2.677664,9.703242,10.065932442839152
41354.845431789734,-0.031107806,-1.5841051,9.99757,10.122339777360773
41372.92271589487,0.49533197,-2.9911351,9.32277,9.803381223835789
41391.0,0.30389932,-2.7733805,9.176803,9.591543540811651
41408.768147684605,-0.48336744,-1.8305746,10.031071,10.208184601350933
41426.845431789734,0.28714898,-2.2325833,9.789387,10.044848458982491
41444.92271589487,0.12443122,-2.187118,9.844424,10.08521949023474
41463.0,0.12921704,-2.0339718,9.56206,9.776846616891442
41480.768147684605,0.07657306,-2.5221252,9.459166,9.789933624573193
41498.845431789734,-0.08614469,-1.5697477,10.054999,10.177157443965948
41516.92271589487,0.442688,-2.3618002,9.798959,10.089284926779749
41535.0,0.25604117,-2.9600272,9.143302,9.613911252382081
41552.768147684605,0.18903974,-1.4142087,10.172253,10.27182814140034
41570.845431789734,-0.014357449,-1.7659662,9.7917795,9.949763240022573
41588.92271589487,-0.41875893,-2.2708697,9.629062,9.902072673722246
41607.0,-0.46422416,-2.1225095,9.530953,9.775459873403756
41624.768147684605,0.05025107,-1.7396442,9.511809,9.669715485220378
41642.845431789734,-0.12682413,-1.7085364,10.023892,10.169247357486158
41660.92271589487,-0.12443122,-2.2780485,9.935354,10.193931881378202
41679.0,0.5072965,-2.0890088,9.56206,9.800729511061395
41696.768147684605,0.23211208,-2.3306925,9.530953,9.81453354140925
41714.845431789734,0.016750356,-3.2328188,9.758279,10.279854425520849
41732.92271589487,0.69872916,-3.2471762,9.411307,9.980234223760972
41751.0,0.8710185,-3.0916374,9.4495945,9.980567681993408
41768.768147684605,0.52165395,-2.4479449,9.88271,10.194729717902609
41786.845431789734,-0.3278284,-2.4264088,9.731957,10.035233837555207
41804.92271589487,-0.2656128,-2.1392598,9.535739,9.776364402350234
41823.0,-0.46901,-1.3639576,9.703242,9.809855046088181
41840.768147684605,-0.3326142,-2.215833,9.880318,10.131200909618498
41858.845431789734,0.045465253,-2.833203,9.516596,9.929486681377611
41876.92271589487,-0.51208234,-1.6893932,9.887496,10.04384661656888
41895.0,-0.27039862,-2.6680925,9.341913,9.719216609471319
41912.768147684605,0.20100428,-2.8978117,9.7415285,10.165387001267952
41930.845431789734,0.47618872,-2.3785505,9.451987,9.758294749917862
41948.92271589487,0.3278284,-1.7492158,9.6912775,9.853328724691085
41967.0,-0.2991135,-2.2804415,9.751101,10.018675213470367
41984.768147684605,-0.028714897,-2.761416,9.5405245,9.932162433501878
42002.845431789734,-0.014357449,-1.9382555,9.655384,9.848019126051595
42020.92271589487,-0.105287954,-2.574769,9.784601,10.118247757681145
42039.0,0.004785816,-2.7662017,9.349092,9.749739277210528
42056.768147684605,0.35415038,-2.7733805,9.406522,9.813241973268488
42074.845431789734,0.08614469,-2.1296883,9.8922825,10.119300678533984
42092.92271589487,-0.67240715,-2.4838386,9.478309,9.821401481749032
42111.0,0.45943835,-1.7683591,9.708028,9.878460667168117
42128.768147684605,-0.12443122,-1.5338541,9.810924,9.930882199602083
42146.845431789734,-0.6819788,-2.060294,10.019106,10.251458017731988
42164.92271589487,-0.69872916,-1.8545038,9.624276,9.826194345087254
42183.0,0.17707519,-2.1392598,9.643419,9.879439160416474
42200.768147684605,-0.12921704,-2.7470584,9.818102,10.195987140970752
42218.845431789734,0.1483603,-3.1347096,9.511809,10.016133261265509
42236.92271589487,0.6532639,-2.8906329,9.310805,9.771059412040776
42255.0,0.60779864,-2.4934103,9.617098,9.953646972468732
42272.768147684605,0.033500712,-3.050958,9.533346,10.009702941205823
42290.845431789734,0.8877689,-2.8978117,9.52856,9.998945041456329
42308.92271589487,0.37568656,-2.6369848,9.394557,9.76486202939113
42327.0,0.07418015,-2.524518,9.743921,10.065917259803948
42344.768147684605,-0.4450809,-2.495803,9.557275,9.887802336615493
42362.845431789734,0.19382556,-2.8403819,9.370628,9.793569665854271
42380.92271589487,0.30389932,-2.0722585,9.705635,9.929046320807638
42399.0,0.045465253,-2.8284173,9.583597,9.992364233282263
42416.768147684605,0.2656128,-2.761416,9.442415,9.84150240140218
42434.845431789734,0.5264398,-2.2732627,9.47113,9.754340861541355
42452.92271589487,0.34457877,-2.1990826,9.782208,10.032262564627258
42471.0,0.16032484,-2.237369,9.626669,9.884547543112078
42488.768147684605,-0.08375178,-1.9502201,9.643419,9.838999075549209
42506.845431789734,-0.107680865,-2.1201165,9.650599,9.881323302122059
42524.92271589487,-0.13400285,-2.318728,9.684099,9.958726311310755
42543.0,0.2632199,-2.2732627,9.686492,9.953147004090278
42560.768147684605,0.25364825,-2.8714898,9.731957,10.14991517974811
42578.845431789734,0.016750356,-2.7733805,9.593168,9.986029854172797
42596.92271589487,0.5072965,-2.732701,9.420879,9.822319768107443
42615.0,0.3517575,-2.3570144,9.722385,10.010195817706993
42632.768147684605,-0.21057591,-2.7494514,9.507024,9.898855012142075
42650.845431789734,0.2057901,-3.0629225,9.317985,9.810641582816553
42668.92271589487,0.23211208,-2.2804415,9.607526,9.877188126854737
42687.0,-0.11246668,-2.8714898,9.729565,10.145074544567883
42704.768147684605,0.031107806,-2.861918,9.363449,9.791104100657858
42722.845431789734,0.3804724,-2.7350938,9.480701,9.874674110742147
42740.92271589487,0.5551547,-3.0437791,9.595561,10.082042395033355
42759.0,0.416366,-3.15146,9.507024,10.024398541265805
42776.768147684605,0.6460852,-2.998314,9.224661,9.721197636771718
42794.845431789734,0.7681235,-3.01985,9.521381,10.018293461508962
42812.92271589487,0.6867646,-3.1801748,9.583597,10.120794871588751
42831.0,0.28475606,-3.175389,9.52856,10.047767761479548
42848.768147684605,0.07896597,-2.2780485,9.574025,9.841630723279314
42866.845431789734,0.1459674,-1.8162172,9.887496,10.053980731504044
42884.92271589487,0.21536173,-2.7494514,9.485488,9.878276482962733
42903.0,0.31107804,-1.718108,9.846817,10.00042347493961
42920.768147684605,-0.40200856,-1.6750357,9.779816,9.930365374569245
42938.845431789734,0.68915755,-2.526911,9.0978365,9.467356880955489
42956.92271589487,0.057429794,-2.6992004,9.574025,9.947408490718779
42975.0,-0.014357449,-2.1177237,10.122002,10.341174222199696
42992.768147684605,0.35415038,-2.165582,9.621883,9.868931064510845
43010.845431789734,0.26082698,-2.8020954,9.286877,9.703909199767178
43028.92271589487,0.055036888,-2.6872358,9.703242,10.06862307440329
43047.0,-0.021536173,-1.7276796,9.899461,10.049112831365994
43064.768147684605,0.6293348,-2.7494514,9.28209,9.701172097203152
43082.845431789734,-0.019143265,-2.81406,9.480701,9.889539503920082
43100.92271589487,-0.16989647,-1.8712541,10.002356,10.17730722087239
43119.0,0.2632199,-2.0363648,9.514202,9.733247454536386
43136.768147684605,0.27039862,-2.7542372,9.303627,9.706513963452108
43154.845431789734,0.07418015,-2.6130557,9.837245,10.178651775946632
43172.92271589487,0.12682413,-1.8090385,9.937747,10.101857259456873
43191.0,0.57669085,-2.7685947,9.260554,9.682744927770113
43208.768147684605,-0.045465253,-2.7518444,9.45438,9.846827706192576
43226.845431789734,-0.16511066,-1.7922882,9.935354,10.097069754499119
43244.92271589487,0.3565433,-2.1225095,9.478309,9.719594189154511
43263.0,0.25125536,-2.7709875,9.380199,9.784152199382733
43280.768147684605,0.002392908,-2.5173392,9.911426,10.226112053333923
43298.845431789734,0.07418015,-1.7827165,9.944926,10.103718818311517
43316.92271589487,0.5623334,-2.7279153,9.26534,9.674929769891337
43335.0,-0.045465253,-2.658521,9.56206,9.924857300751047
43352.768147684605,-0.19861138,-1.6846073,9.999963,10.142810667504731
43370.845431789734,0.45465255,-2.2565124,9.5405245,9.81428371750458
43388.92271589487,0.22971918,-2.7997024,9.361056,9.773457620789156
43407.0,0.026321989,-2.474267,10.011928,10.313165969360616
43424.768147684605,0.14118157,-1.8592896,9.84921,10.02416219324467
43442.845431789734,0.4139731,-2.7662017,9.193553,9.60961301699582
43460.92271589487,-0.07418015,-2.7374868,9.715207,10.09378936414255
43479.0,-0.16989647,-1.6846073,10.054999,10.196556843157044
43496.768147684605,0.49533197,-2.2517266,9.511809,9.787243579993941
43514.845431789734,0.21536173,-2.8092742,9.432844,9.844640579212134
43532.92271589487,0.069394335,-2.450338,9.696064,10.001131385001903
43551.0,0.13878867,-2.4072654,9.607526,9.905490641136032
43568.768147684605,0.11246668,-2.3976939,9.621883,9.916764455098066
43586.845431789734,0.22254045,-2.4096584,9.669742,9.967943027683331
43604.92271589487,-0.18664683,-1.8688612,10.054999,10.228904345726159
43623.0,0.18664683,-1.9095407,9.636241,9.825391764921465
43640.768147684605,0.3278284,-2.7446656,9.155267,9.5634499296519
43658.845431789734,-0.234505,-2.761416,9.830067,10.213257469807074
43676.92271589487,-0.09571633,-1.7133222,10.01432,10.160277537510552
43695.0,0.5886554,-2.5221252,9.361056,9.712723621083851
43712.768147684605,0.21775463,-2.7279153,9.418487,9.807998589520166
43730.845431789734,-0.15793194,-2.0028641,10.074143,10.272524727893819
43748.92271589487,0.20100428,-1.9813279,9.5500965,9.755532078119009
43767.0,0.31825677,-2.732701,9.145695,9.55053292544855
43784.768147684605,-0.17468229,-2.8906329,9.813316,10.231688197988543
43802.845431789734,0.004785816,-1.7587874,9.999963,10.153453403832733
43820.92271589487,0.63651353,-2.5939124,9.33952,9.713916040565042
43839.0,0.18425392,-2.7685947,9.406522,9.807228061811731
43856.768147684605,-0.15314612,-1.902362,10.076536,10.255681970128125
43874.845431789734,0.30150643,-2.0459363,9.564454,9.78547606348843
43892.92271589487,0.28714898,-2.7566302,9.17441,9.583906481407626
43911.0,-0.1459674,-2.8164527,9.923389,10.316363775018845
43928.768147684605,-0.014357449,-1.7276796,10.007142,10.155194431657227
43946.845431789734,0.598227,-2.6345918,9.241411,9.628220332287647
43964.92271589487,0.1196454,-2.730308,9.401736,9.790890491181134
43983.0,-0.16032484,-1.8832186,10.045428,10.221684795222899
44000.768147684605,0.28954187,-2.00765,9.588383,9.800590878700739
44018.845431789734,0.24168372,-2.711165,9.239018,9.631629160327034
44036.92271589487,-0.12682413,-2.7973096,9.815709,10.207309563782388
44055.0,0.014357449,-1.7611804,9.930569,10.085542285938171
44072.768147684605,0.62454903,-2.706379,9.246197,9.654362109705849
44090.845431789734,0.09571633,-2.7183435,9.43763,9.821782578367378
44108.92271589487,-0.16750357,-1.746823,10.047821,10.199909552899612
44127.0,0.416366,-2.031579,9.444808,9.669802068091208
44144.768147684605,0.27997026,-2.8738825,9.538132,9.965618195561914
44162.845431789734,-0.31586388,-1.7492158,9.681706,9.843523605706155
44180.92271589487,-0.12682413,-1.6630712,9.916211,10.055502512194042
44199.0,0.63412064,-2.8260245,9.186374,9.632133238724965
44216.768147684605,0.19143265,-2.8523464,9.4495945,9.87255603476168
44234.845431789734,-0.19382556,-1.9143264,10.215324,10.394953503427626
44252.92271589487,0.33979294,-2.132081,9.595561,9.835447093922872
44271.0,0.40679437,-2.7709875,9.081086,9.503156124362894
44288.768147684605,-0.416366,-2.3546216,9.813316,10.100434368926841
44306.845431789734,-0.17468229,-1.7300725,10.172253,10.319805998840526
44324.92271589487,0.70830077,-2.8212388,9.193553,9.642743132076943
44343.0,0.3230426,-2.943277,9.483095,9.934602498296988
44360.768147684605,-0.80162424,-1.6056414,10.205753,10.362339505370326
44378.845431789734,0.51926106,-2.6465564,9.629062,9.99963638472206
44396.92271589487,0.2943277,-2.6920216,8.772401,9.180883856941817
44415.0,-0.46422416,-1.4859959,9.853995,9.976216985689991
44432.768147684605,0.30389932,-2.1296883,10.387614,10.60803712591775
44450.845431789734,0.57429796,-2.940884,9.28209,9.753758845512644
44468.92271589487,-0.2392908,-2.342657,9.250982,9.545992346054843
44487.0,-0.09332342,-1.4453164,10.177038,10.279579330413936
44504.768147684605,0.650871,-2.8020954,9.466345,9.893788927825737
44522.845431789734,0.24407662,-2.9265265,9.095444,9.557783859701415
44540.92271589487,-0.34936458,-1.5147108,10.174645,10.292706412475788
44559.0,0.40440148,-2.057901,9.918604,10.137909172587966
44576.768147684605,0.38765112,-2.81406,9.169623,9.599541293028864
44594.845431789734,0.15553902,-2.579555,9.605133,9.946701781618698
44612.92271589487,0.18664683,-2.4000869,9.657777,9.953286429538219
44631.0,0.17946811,-2.340264,9.712814,9.992387111736562
44648.768147684605,-0.035893623,-1.7133222,10.177038,10.320313162236353
44666.845431789734,0.62454903,-2.8020954,9.11698,9.558301336637964
44684.92271589487,0.09810923,-2.9073834,9.349092,9.791221827742989
44703.0,-0.09810923,-1.5577831,10.33497,10.452172908470123
44720.768147684605,0.60540575,-2.4383733,9.609919,9.932911137166533
44738.845431789734,0.22254045,-2.8427749,8.884868,9.33122568376632
44756.92271589487,-0.6197632,-1.8042527,9.928176,10.109802812938913
44775.0,0.16511066,-1.8090385,10.064571,10.227192734986904
44792.768147684605,0.571905,-2.833203,9.203125,9.64632698667524
44810.845431789734,0.18664683,-2.895419,9.566847,9.997142078920307
44828.92271589487,-0.22014755,-1.6295704,10.272755,10.403531127571645
44847.0,0.60540575,-2.3091564,9.497452,9.79287056455348
44864.768147684605,0.3613291,-2.7757733,8.918368,9.347339937914086
44882.845431789734,-0.55754757,-1.8329676,10.035856,10.217095241221875
44900.92271589487,0.1459674,-1.8186102,10.074143,10.238017714668
44919.0,0.5886554,-2.864311,9.193553,9.64739392004282
44936.768147684605,0.17228939,-2.785345,9.54531,9.94488679669264
44954.845431789734,-0.24886245,-1.5482116,10.12918,10.249838006026952
44972.92271589487,0.60540575,-2.4479449,9.459166,9.789523572223782
44991.0,0.33022133,-2.8427749,9.19116,9.626413527605022
45008.768147684605,-0.571905,-2.0220072,10.066964,10.28393663064747
45026.845431789734,0.0598227,-1.7563945,10.026285,10.179140007696649
45044.92271589487,0.5695121,-2.837989,9.061943,9.513008805389408
45063.0,0.16032484,-2.835596,9.574025,9.986403928850567
45080.768147684605,-0.24646953,-1.6056414,10.212932,10.34131575628732
45098.845431789734,0.5527618,-2.471874,9.435237,9.76930928600299
45116.92271589487,0.3254355,-2.8523464,9.105016,9.546889787281993
45135.0,-0.5025107,-1.7109293,10.107644,10.263735348495157
45152.768147684605,0.13639577,-1.7827165,9.95689,10.11614256510584
45170.845431789734,0.598227,-2.8403819,9.093051,9.545115052736538
45188.92271589487,0.12443122,-2.8499537,9.6003475,10.015208002902916
45207.0,-0.19382556,-1.6056414,10.1842165,10.311833899553246
45224.768147684605,0.6173703,-2.5101607,9.332341,9.683730756657145
45242.845431789734,0.34218585,-2.7997024,9.105016,9.531880247084622
45260.92271589487,-0.4785816,-2.0124357,10.059786,10.270259595564713
45279.0,0.15793194,-1.9813279,9.990392,10.186193354666628
45296.768147684605,0.56711924,-2.7566302,9.215089,9.63527371535709
45314.845431789734,-0.11485959,-2.7781663,9.705635,10.0960760431514
45332.92271589487,-0.22493336,-1.5506045,9.909033,10.03214355593809
45351.0,0.4737958,-2.3354783,9.401736,9.699050528972645
45368.768147684605,0.28475606,-2.8308103,9.440022,9.859441583009497
45386.845431789734,-0.035893623,-2.2469406,10.107644,10.354443376774844
45404.92271589487,0.17707519,-1.9286839,9.815709,10.004964786630373
45423.0,0.4737958,-2.7207365,9.095444,9.505471641095244
45440.768147684605,-0.19621846,-2.7398798,9.729565,10.109890112741967
45458.845431789734,-0.13400285,-1.6750357,10.019106,10.159044561341318
45476.92271589487,0.5312256,-2.4335876,9.425665,9.749241505737466
45495.0,0.2392908,-2.7805593,9.420879,9.825565186818626
45512.768147684605,-0.12682413,-2.0363648,10.074143,10.278678083444305
45530.845431789734,0.17707519,-1.8640754,9.69367,9.872860314452883
45548.92271589487,0.44747382,-2.7159507,9.088264,9.495955115632755
45567.0,-0.18425392,-2.7757733,9.767851,10.156268019219917
45584.768147684605,-0.13878867,-1.665464,9.990392,10.12921344152054
45602.845431789734,0.59583414,-2.500589,9.423272,9.76760046558491
45620.92271589487,0.16750357,-2.8020954,9.327556,9.740795501898184
45639.0,0.105287954,-2.4766598,9.715207,10.026473775512633
45656.768147684605,0.17468229,-2.4168372,9.657777,9.95712169934025
45674.845431789734,0.13878867,-2.3474429,9.5907755,9.874853171317588
45692.92271589487,0.46901,-2.7207365,9.466345,9.860733499165123
45711.0,-0.13878867,-2.3139422,9.95689,10.22317217266545
45728.768147684605,0.0598227,-1.770752,9.839638,9.997880644015675
45746.845431789734,0.5551547,-2.7135577,9.1983385,9.60630122850328
45764.92271589487,-0.110073775,-2.7422726,9.67692,10.058576237969941
45783.0,-0.19861138,-1.6487137,9.995177,10.132189625454222
45800.768147684605,0.45943835,-2.2565124,9.495059,9.770316127039363
45818.845431789734,0.22732627,-2.7757733,9.365842,9.771161190717766
45836.92271589487,-0.16032484,-2.1201165,10.057393,10.279676647849497
45855.0,0.1483603,-1.8210031,9.84921,10.017235182071234
45872.768147684605,0.5072965,-2.785345,9.13373,9.562453671565539
45890.845431789734,-0.18903974,-2.7709875,9.801352,10.187276808664793
45908.92271589487,-0.17707519,-1.6463208,9.968855,10.105434073331594
45927.0,0.55036885,-2.424016,9.392164,9.715529015046082
45944.768147684605,0.21536173,-2.7398798,9.394557,9.788310539589846
45962.845431789734,0.067001425,-2.187118,9.947319,10.185142592258442
45980.92271589487,0.057429794,-2.68245,10.567082,10.902387728312677
45999.0,0.8279462,-2.6106627,8.703007,9.123781315075165
46016.768147684605,-0.6269419,-1.4620669,9.01887,9.15809542661307
46034.845431789734,-0.07657306,-1.4692456,10.203361,10.308885573278914
46052.92271589487,0.69872916,-3.0126712,9.784601,10.261716568271838
46071.0,0.24886245,-2.9791706,9.411307,9.874719714056363
46088.768147684605,-0.21296883,-1.4094229,10.038249,10.138948250168603
46106.845431789734,0.17707519,-1.7779307,9.614705,9.779312114558008
46124.92271589487,0.45943835,-2.8427749,9.088264,9.533572009651825
46143.0,-0.12443122,-2.94567,9.899461,10.329171456023552
46160.768147684605,-0.1172525,-1.6774286,10.0837145,10.22295519770895
46178.845431789734,0.6101916,-2.60827,9.28209,9.660879926265027
46196.92271589487,0.2967206,-2.7781663,9.308413,9.718683227860092
46215.0,-0.22732627,-1.9478272,10.193789,10.380705284835562
46232.768147684605,0.2584341,-1.9837208,9.67692,9.881534146214113
46250.845431789734,0.31586388,-2.7135577,9.073908,9.476231939667894
46268.92271589487,-0.15553902,-2.782952,9.767851,10.157752082978181
46287.0,-0.09810923,-1.6415349,9.990392,10.124830594266415
46304.768147684605,0.63412064,-2.5963054,9.33952,9.7143988257917
46322.845431789734,0.2057901,-2.7805593,9.411307,9.81562830563197
46340.92271589487,-0.17468229,-1.8592896,10.141145,10.31165814164399
46359.0,0.2368979,-1.9071478,9.557275,9.748581372266134
46376.768147684605,0.31586388,-2.706379,9.145695,9.542955219184185
46394.845431789734,-0.15793194,-2.7662017,9.798959,10.183143513986044
46412.92271589487,-0.069394335,-1.7037506,10.004748,10.149017894566668
46431.0,0.6389065,-2.6752713,9.279697,9.678742400547447
46448.768147684605,0.16032484,-2.7279153,9.334735,9.726484640327158
46466.845431789734,-0.21536173,-1.87604,10.045428,10.221376152922492
46484.92271589487,0.3254355,-2.0411506,9.509417,9.731454964003564
46503.0,0.27039862,-2.7374868,9.038013,9.447360921550587
46520.768147684605,-0.057429794,-2.759023,9.916211,10.293043606838985
46538.845431789734,-0.031107806,-1.7731448,9.99757,10.153640533437313
46556.92271589487,0.71787244,-2.5364826,9.272519,9.639952978390264
46575.0,0.11246668,-2.7231295,9.509417,9.892274496179807
46592.768147684605,-0.09810923,-1.74443,9.987998,10.139662987196132
46610.845431789734,0.37329367,-2.2732627,9.502238,9.777504716230894
46628.92271589487,0.35893622,-2.7805593,9.253376,9.66878030716493
46647.0,-0.035893623,-2.8236315,9.918604,10.312753682153973
46664.768147684605,0.10050214,-1.7731448,9.995177,10.151734158420453
46682.845431789734,0.58626246,-2.4120514,9.270126,9.596714629711734
46700.92271589487,0.2943277,-2.5412683,9.60274,9.937670193519818
46719.0,0.14357449,-2.4311945,9.652991,9.955478671419572
46736.768147684605,0.22254045,-2.4670882,9.703242,10.0144372657194
46754.845431789734,0.46661708,-2.763809,9.32277,9.735009612770227
46772.92271589487,-0.14118157,-2.7135577,9.885103,10.251760285314225
46791.0,0.045465253,-1.8186102,9.887496,10.053456485149294
46808.768147684605,0.6173703,-2.7159507,9.26534,9.674919100837618
46826.845431789734,0.023929082,-2.7350938,9.497452,9.883466253702078
46844.92271589487,-0.21536173,-1.7252867,10.016713,10.166490751302264
46863.0,0.33979294,-2.000471,9.43045,9.646280664920281
46880.768147684605,0.2919348,-2.708772,9.277305,9.669077501936782
46898.845431789734,-0.033500712,-2.450338,9.983212,10.279581725386132
46916.92271589487,0.11485959,-1.8377534,9.973641,10.142191335283886
46935.0,0.5551547,-2.680057,9.183981,9.583131496152083
46952.768147684605,-0.045465253,-2.6513422,9.514202,9.876827539627042
46970.845431789734,-0.19382556,-1.6463208,10.019106,10.15531513855961
46988.92271589487,0.48815325,-2.215833,9.521381,9.787998039769704
47007.0,0.31586388,-2.761416,9.459166,9.859057243535036
47024.768147684605,-0.11246668,-2.237369,10.035856,10.282843694669642
47042.845431789734,0.105287954,-1.7875023,9.810924,9.972987504230556
47060.92271589487,0.5312256,-2.6920216,9.136123,9.53928322276317
47079.0,-0.088537596,-2.7374868,9.624276,10.006416012252124
47096.768147684605,-0.20339718,-1.7228938,10.054999,10.203564982343739
47114.845431789734,0.46661708,-2.290013,9.487881,9.771477723951364
47132.92271589487,0.2680057,-2.7709875,9.39695,9.800656512851
47151.0,-0.12443122,-2.2086542,9.9927845,10.234714386201922
47168.768147684605,0.12921704,-1.8951832,9.810924,9.993129947056858
47186.845431789734,0.46901,-2.7494514,9.15048,9.566124482331492
47204.92271589487,-0.14357449,-2.7733805,9.806137,10.191789631596995
47223.0,-0.21536173,-1.665464,9.990392,10.130551975273045
47240.768147684605,0.5312256,-2.342657,9.394557,9.696800693218014
47258.845431789734,0.20100428,-2.7877378,9.440022,9.845095231769532
47276.92271589487,-0.15553902,-2.0722585,10.131573,10.342495788343053
47295.0,0.18903974,-1.8856115,9.729565,9.9124014164811
47312.768147684605,0.5551547,-2.7566302,9.095444,9.520205268670427
47330.845431789734,-0.16989647,-2.864311,9.858782,10.267849085313022
47348.92271589487,-0.11246668,-1.691786,10.031071,10.173356084938108
47367.0,0.5599405,-2.4048727,9.4137,9.732147438091223
47384.768147684605,0.27279153,-2.7877378,9.408915,9.817004570520153
47402.845431789734,-0.16271774,-1.9765421,10.105251,10.298023767159606
47420.92271589487,0.2368979,-1.9238981,9.686492,9.87854401115225
47439.0,0.34218585,-2.6872358,9.162445,9.55451337215909
