timestamp,accel_x,accel_y,accel_z,magnitude
1275896.899448345,-7.7960944,3.1825678,4.0057282,9.3248959301208
1275898.05667001,-7.7434506,3.1418884,3.9243693,9.232180907861231
1275899.213891675,-7.7458434,3.2208543,3.9171906,9.258313809537912
1275900.37111334,-7.702771,3.2998202,3.8717253,9.231021136874789
1275901.528335005,-7.7171288,3.275891,3.8573678,9.228479024419316
1275902.68555667,-7.683628,3.2878556,3.874118,9.211781801951204
1275903.842778335,-7.7171288,3.2830698,3.9985495,9.290910737457965
1275905.0,-7.7386646,3.2711053,4.0966587,9.347174555942932
1275906.899448345,-7.7960944,3.278284,4.1851964,9.43621231135355
1275908.05667001,-7.8822393,3.2734983,4.2737336,9.545170841128845
1275909.213891675,-7.910954,3.2878556,4.314413,9.59204603675026
1275910.37111334,-7.9635983,3.2974274,4.245019,9.6079192155427
1275911.528335005,-8.016242,3.3381069,4.2115183,9.650905650229232
1275912.68555667,-8.023421,3.3644288,4.1732316,9.649379652638245
1275913.842778335,-8.032992,3.43143,4.1564813,9.673676091032492
1275915.0,-7.994706,3.441002,4.118195,9.628880975921605
1275915.899448345,-7.9994917,3.4577522,4.1349454,9.646019448246768
1275917.05667001,-7.997099,3.4768956,4.1612673,9.662222361918072
1275918.213891675,-7.968384,3.5056105,4.1469097,9.642681608822327
1275919.37111334,-7.9253116,3.4745026,4.2067323,9.621815261080656
1275920.528335005,-7.910954,3.4673238,4.22109,9.613694831450728
1275921.68555667,-7.922919,3.438609,4.2593765,9.630107242611281
1275922.842778335,-7.9205256,3.381179,4.2354474,9.597192917122335
1275924.0,-7.896597,3.3476784,4.2809124,9.585896193194944
1275924.899448345,-7.908561,3.2615337,4.307235,9.577850098648533
1275926.05667001,-7.8630958,3.2495692,4.268948,9.51902792160367
1275927.213891675,-7.8774533,3.2088897,4.264162,9.514952504489498
1275928.37111334,-7.8942037,3.2088897,4.2306614,9.51388044098252
1275929.528335005,-7.9253116,3.1897464,4.2067323,9.522690937821661
1275930.68555667,-7.9253116,3.1442811,4.2282686,9.517106858003524
1275931.842778335,-7.9324903,3.1418884,4.2019467,9.510637262943506
1275933.0,-7.9013824,3.125138,4.213911,9.484480864338057
1275933.899448345,-7.8989897,3.1466742,4.2067323,9.48642153003518
1275935.05667001,-7.9444547,3.153853,4.240233,9.541526351703384
1275936.213891675,-7.9324903,3.1634245,4.2043395,9.518830157012708
1275937.37111334,-7.934883,3.1586387,4.166053,9.502387292656287
1275938.528335005,-7.9564195,3.204104,4.1995535,9.550243101730892
1275939.68555667,-7.939669,3.1945324,4.168446,9.519418214319968
1275940.842778335,-7.9875274,3.201711,4.1804104,9.566994220009748
1275942.0,-7.958812,3.1945324,4.132552,9.519753764604301
1275943.899448345,-7.9516335,3.2352118,4.1469097,9.53372596465493
1275945.05667001,-7.942062,3.1945324,4.1062303,9.494341122117524
1275946.213891675,-7.946848,3.22564,4.0799084,9.497515417049586
1275947.37111334,-7.918133,3.2495692,4.051193,9.46935557018146
1275948.528335005,-7.896597,3.280677,4.0751224,9.472365508874736
1275949.68555667,-7.8319883,3.2902486,4.065551,9.417774764493991
1275950.842778335,-7.8798466,3.2687125,4.036836,9.437823305089147
1275952.0,-7.8750606,3.2519622,4.1493025,9.476737246563685
1275952.899448345,-7.865489,3.1849606,4.166053,9.453353311470082
1275954.05667001,-7.889418,3.1442811,4.23784,9.49150714481853
1275955.213891675,-7.946848,3.1586387,4.2115183,9.53238049825313
1275956.37111334,-7.994706,3.2399976,4.189982,9.590039501209874
1275957.528335005,-8.037778,3.3668218,4.175625,9.663188311880518
1275958.68555667,-8.054528,3.4792883,4.245019,9.746848448994264
1275959.842778335,-8.114351,3.5582542,4.2833056,9.841268818907956
1275961.0,-8.143066,3.6563635,4.2856984,9.901804315388725
1275961.899448345,-8.171782,3.7018287,4.323985,9.958835426890671
1275963.05667001,-8.1526375,3.6635423,4.345521,9.938339557075746
1275964.213891675,-8.157424,3.6587565,4.3096275,9.924865471673886
1275965.37111334,-8.198103,3.6611493,4.292877,9.951969650909739
1275966.528335005,-8.238783,3.596541,4.3024487,9.966128501173447
1275967.68555667,-8.269891,3.5750046,4.321592,9.992392729289925
1275968.842778335,-8.32732,3.5343254,4.3335567,10.0307242055397
1275970.0,-8.312963,3.484074,4.323985,9.997048152183224
1275970.899448345,-8.358428,3.5103962,4.338342,10.05024434633917
1275972.05667001,-8.391929,3.5080032,4.3335567,10.0752306407529
1275973.213891675,-8.356035,3.4816813,4.3096275,10.02588224470799
1275974.37111334,-8.375178,3.438609,4.326378,10.034200764657292
1275975.528335005,-8.368,3.4768956,4.307235,10.033170005463097
1275976.68555667,-8.356035,3.4457877,4.276127,9.999101755399098
1275977.842778335,-8.317748,3.433823,4.3096275,9.977422581788808
1275979.0,-8.312963,3.441002,4.268948,9.958401760828743
1275980.899448345,-8.322535,3.462538,4.2545905,9.967712804367874
1275982.05667001,-8.303391,3.4577522,4.2115183,9.931728891120656
1275983.213891675,-8.267497,3.43143,4.225876,9.898699230569894
1275984.37111334,-8.277069,3.4505734,4.23784,9.918448259942103
1275985.528335005,-8.238783,3.4266443,4.192375,9.858775006076389
1275986.68555667,-8.226818,3.43143,4.22109,9.862699784446649
1275987.842778335,-8.224425,3.4194658,4.187589,9.842246418928742
1275989.0,-8.207675,3.43143,4.2019467,9.838546479036722
1275989.899448345,-8.214853,3.3859649,4.1995535,9.82775751201683
1275991.05667001,-8.181353,3.4146798,4.187589,9.8046150704685
1275992.213891675,-8.186138,3.4290373,4.187589,9.813615734924426
1275993.37111334,-8.207675,3.433823,4.166053,9.824106417367586
1275994.528335005,-8.243568,3.4673238,4.1564813,9.861799252769249
1275995.68555667,-8.245961,3.4864671,4.1277666,9.858487853468144
1275996.842778335,-8.281855,3.4816813,4.118195,9.882851662036606
1275998.0,-8.2028885,3.464931,4.1995535,9.845271767582421
1275998.899448345,-8.2124605,3.441002,4.120588,9.811434538017785
1276000.05667001,-8.238783,3.3931437,4.216304,9.8573926020198
1276001.213891675,-8.267497,3.22564,4.3550925,9.885499013108305
1276002.37111334,-8.324927,3.330928,4.249805,9.922718046711697
1276003.528335005,-8.403893,3.5343254,4.051193,9.976424124493864
1276004.68555667,-8.413465,3.6659353,3.9913707,10.007822690017525
1276005.842778335,-8.415857,3.6635423,4.0775156,10.043621094833359
1276007.0,-8.420644,3.749687,4.113409,10.093935385863434
1276007.899448345,-8.449359,3.7927594,4.1229806,10.137833121784245
1276009.05667001,-8.446965,3.8310459,4.1564813,10.16388051860024
1276010.213891675,-8.423037,3.799938,4.1540885,10.131314444485733
1276011.37111334,-8.487645,3.776009,4.168446,10.18205792897595
1276012.528335005,-8.470895,3.771223,4.170839,10.167304607450049
1276013.68555667,-8.473288,3.7281508,4.1349454,10.138712510938744
1276014.842778335,-8.490038,3.7090075,4.1062303,10.134032225779546
1276016.0,-8.492431,3.6755068,4.0918727,10.118011500270818
1276017.899448345,-8.427822,3.646792,4.034443,10.030154828077032
1276019.05667001,-8.435001,3.6396132,4.0727296,10.04903739222476
1276020.213891675,-8.435001,3.6228628,4.0033355,10.0150422796504
1276021.37111334,-8.48286,3.5845764,4.036836,10.055055774978722
1276022.528335005,-8.561825,3.5821834,4.036836,10.120915478984921
1276023.68555667,-8.542682,3.6132913,4.0153,10.10722137195875
1276024.842778335,-8.569004,3.6563635,4.0464077,10.1572751695899
1276026.0,-8.600112,3.6659353,4.0488005,10.187923906524349
1276026.899448345,-8.643184,3.6348274,4.0679436,10.220800605550805
1276028.05667001,-8.643184,3.6348274,4.0488005,10.213196628600029
1276029.213891675,-8.686256,3.6611493,4.03205,10.252437987958107
1276030.37111334,-8.726935,3.6922572,4.036836,10.299912747983491
1276031.528335005,-8.772401,3.7161863,3.9770133,10.323841083118511
1276032.68555667,-8.777187,3.6898644,4.039229,10.342605176540259
1276033.842778335,-8.832224,3.649185,4.113409,10.404079274576967
1276035.0,-8.915976,3.6539707,4.2282686,10.522565526656532
1276035.899448345,-8.923154,3.6252558,4.2785196,10.539017358878095
1276037.05667001,-8.937511,3.6013267,4.292877,10.548812720509494
1276038.213891675,-8.973405,3.5869691,4.218697,10.544465325287423
1276039.37111334,-8.942298,3.5821834,4.2282686,10.520218000867924
1276040.528335005,-8.915976,3.6132913,4.120588,10.465646063047217
1276041.68555667,-8.901618,3.6037195,4.0416217,10.419227573026472
1276042.842778335,-8.863332,3.5893621,4.027264,10.375983314984484
1276044.0,-8.899225,3.5917552,4.020086,10.404710590148484
1276044.899448345,-8.899225,3.5773976,4.0535865,10.412758649949254
1276046.05667001,-8.889653,3.5869691,4.0559793,10.408806169143139
1276047.213891675,-8.863332,3.5486827,4.065551,10.37692189337013
1276048.37111334,-8.844189,3.4697168,4.036836,10.32253159989444
1276049.528335005,-8.784366,3.4768956,4.0057282,10.261566520153275
1276050.68555667,-8.760436,3.4266443,4.0153,10.227891481572266
1276051.842778335,-8.724543,3.3931437,3.9961565,10.178425295702226
1276053.0,-8.693435,3.3381069,3.9387267,10.111000830399803
1276053.899448345,-8.669506,3.3381069,3.9482985,10.094174211146044
1276055.05667001,-8.640791,3.306999,3.936334,10.054562986586637
1276056.213891675,-8.640791,3.2926416,3.8932614,10.033057467216139
1276057.37111334,-8.640791,3.304606,3.8621538,10.024964932396095
1276058.528335005,-8.616862,3.3189635,3.8597608,10.0081758015431
1276059.68555667,-8.64797,3.2615337,3.8645465,10.017969197786444
1276060.842778335,-8.626433,3.2902486,3.8669395,10.009710447857682
1276062.0,-8.6048975,3.2687125,3.8621538,9.98223293497086
1276063.899448345,-8.612076,3.2711053,3.8286529,9.976300213112198
1276065.05667001,-8.602505,3.280677,3.7975452,9.959281269218028
1276066.213891675,-8.59054,3.2902486,3.776009,9.94391056423392
1276067.37111334,-8.59054,3.3452854,3.799938,9.971350996875858
1276068.528335005,-8.602505,3.306999,3.7329366,9.943548175608422
1276069.68555667,-8.602505,3.3213565,3.6802926,9.928698549997982
1276070.842778335,-8.545074,3.3740003,3.720972,9.912002840731034
1276072.0,-8.576182,3.3979294,3.6946502,9.937165692734945
1276072.899448345,-8.549861,3.4051082,3.720972,9.926757657856479
1276074.05667001,-8.533111,3.4146798,3.7018287,9.908458871035027
1276075.213891675,-8.521146,3.4242516,3.6898644,9.896995880761288
1276076.37111334,-8.473288,3.3955367,3.697043,9.848573803137178
1276077.528335005,-8.456537,3.438609,3.6946502,9.848222681662415
1276078.68555667,-8.432608,3.436216,3.6826856,9.822353654230097
1276079.842778335,-8.408679,3.4242516,3.7018287,9.804841521885361
1276081.0,-8.430215,3.4553592,3.6946502,9.831504068432748
1276081.899448345,-8.399107,3.4433947,3.7353296,9.816040580502571
1276083.05667001,-8.375178,3.4433947,3.720972,9.790107569197394
1276084.213891675,-8.394321,3.436216,3.7377224,9.810340166842266
1276085.37111334,-8.45893,3.4816813,3.8071167,9.908064341085426
1276086.528335005,-8.446965,3.4457877,3.8119025,9.887126541832188
1276087.68555667,-8.444572,3.5056105,3.7831876,9.89508007333382
1276088.842778335,-8.473288,3.4745026,3.82626,9.925172211903972
1276090.0,-8.480466,3.5056105,3.8693323,9.958882517767218
1276090.899448345,-8.506788,3.4721096,3.8310459,9.954792807450238
1276092.05667001,-8.506788,3.512789,3.8430104,9.973658183934978
1276093.213891675,-8.518753,3.5056105,3.82626,9.974904673244716
1276094.37111334,-8.513967,3.5223608,3.8382246,9.98131392966431
1276095.528335005,-8.478073,3.5199678,3.8310459,9.947100471708962
1276096.68555667,-8.49961,3.5080032,3.823867,9.958484595409045
1276097.842778335,-8.487645,3.5319324,3.878904,9.978003826688521
1276099.0,-8.497216,3.5080032,3.8669395,9.973063085056992
1276100.899448345,-8.497216,3.4984317,3.8358316,9.957675841971332
1276102.05667001,-8.5043955,3.462538,3.8669395,9.963289282085736
1276103.213891675,-8.502003,3.4864671,3.955477,10.004264398191424
1276104.37111334,-8.494823,3.4745026,3.9602628,9.99589253462639
1276105.528335005,-8.521146,3.4481807,3.9961565,10.023429855376888
1276106.68555667,-8.521146,3.462538,3.9770133,10.020765107672013
1276107.842778335,-8.533111,3.462538,4.008121,10.04331552279455
1276109.0,-8.576182,3.4529665,4.0679436,10.100596045780032
1276109.899448345,-8.537896,3.4505734,4.036836,10.054758564306733
1276111.05667001,-8.5546465,3.4577522,4.008121,10.059973209070098
1276112.213891675,-8.571397,3.4984317,4.020086,10.09301552255667
1276113.37111334,-8.580969,3.4745026,4.0153,10.090977722023162
1276114.528335005,-8.5642185,3.4697168,4.0464077,10.087526379770404
1276115.68555667,-8.545074,3.4984317,4.034443,10.07641029063872
1276116.842778335,-8.511574,3.5056105,4.020086,10.044764227326704
1276118.0,-8.533111,3.5080032,4.0224786,10.064810175904423
1276118.899448345,-8.473288,3.515182,4.010514,10.011859795675527
1276120.05667001,-8.449359,3.48886,3.9626558,9.96325512067992
1276121.213891675,-8.444572,3.484074,3.9650488,9.958472768805539
1276122.37111334,-8.377571,3.5175748,3.9650488,9.913558408564377
1276123.528335005,-8.368,3.5199678,3.9650488,9.906321683622952
1276124.68555667,-8.346463,3.484074,3.984192,9.883117025549632
1276125.842778335,-8.32732,3.436216,4.0176926,9.863756516112447
1276127.0,-8.320142,3.4146798,4.012907,9.848259928908307
1276127.899448345,-8.296212,3.4553592,4.034443,9.851059388218998
1276129.05667001,-8.277069,3.4170728,4.063158,9.833387548765929
1276130.213891675,-8.286641,3.4003224,4.051193,9.830705783923742
1276131.37111334,-8.267497,3.4051082,4.063158,9.821177191746427
1276132.528335005,-8.269891,3.441002,4.0464077,9.828784624281086
1276133.68555667,-8.31057,3.412287,4.063158,9.859945701079342
1276134.842778335,-8.279462,3.4194658,4.051193,9.831297070583446
1276136.0,-8.233996,3.4242516,4.0799084,9.806622339037489
1276137.899448345,-8.23639,3.4673238,4.070337,9.81978094764417
1276139.05667001,-8.243568,3.4721096,4.0296574,9.810713389270472
1276140.213891675,-8.267497,3.4816813,4.082301,9.855901418661801
1276141.37111334,-8.267497,3.464931,4.0607653,9.841090808515798
1276142.528335005,-8.219639,3.4457877,4.0751224,9.800129628671963
1276143.68555667,-8.231604,3.460145,4.08948,9.82118905755515
1276144.842778335,-8.229211,3.460145,4.0799084,9.815200948321769
1276146.0,-8.186138,3.464931,4.0966587,9.787809494166234
1276146.899448345,-8.159817,3.4529665,4.0679436,9.749551592580668
1276148.05667001,-8.164602,3.464931,4.051193,9.750827522647192
1276149.213891675,-8.116744,3.4768956,4.0990515,9.735119895229213
1276150.37111334,-8.135887,3.4481807,4.070337,9.728836040873055
1276151.528335005,-8.174174,3.433823,4.0966587,9.766825148526552
1276152.68555667,-8.157424,3.4553592,4.0918727,9.758406412412118
1276153.842778335,-8.143066,3.484074,4.0775156,9.750611723685614
1276155.0,-8.140674,3.4529665,4.108623,9.750606841654895
1276156.899448345,-8.121531,3.438609,4.115802,9.73258052841311
1276158.05667001,-8.121531,3.484074,4.1540885,9.7649622983025
1276159.213891675,-8.145459,3.4505734,4.1277666,9.761834674565234
1276160.37111334,-8.166995,3.43143,4.144517,9.780160547670677
1276161.528335005,-8.114351,3.4529665,4.120588,9.73369997827482
1276162.68555667,-8.119137,3.4290373,4.1421237,9.7383710740381
1276163.842778335,-8.116744,3.4529665,4.132552,9.740764695051526
1276165.0,-8.104779,3.5056105,4.137338,9.751631317005131
1276165.899448345,-8.102386,3.4768956,4.16366,9.750565445239335
1276167.05667001,-8.099994,3.5080032,4.168446,9.761758617491127
1276168.213891675,-8.119137,3.4745026,4.1229806,9.746359472651937
1276169.37111334,-8.143066,3.4792883,4.1516957,9.78016094654231
1276170.528335005,-8.092815,3.4984317,4.139731,9.740125858332165
1276171.68555667,-8.135887,3.4768956,4.1253734,9.762180390645112
1276172.842778335,-8.052135,3.4816813,4.115802,9.690139773821567
1276174.0,-8.128709,3.4697168,4.108623,9.746570044636844
1276174.899448345,-8.128709,3.464931,4.108623,9.74486735659193
1276176.05667001,-8.092815,3.4792883,4.115802,9.723113071539686
1276177.213891675,-8.088029,3.4745026,4.0799084,9.702269527004407
1276178.37111334,-8.114351,3.4697168,4.0966587,9.72955493985665
1276179.528335005,-8.109566,3.5032175,4.070337,9.726522341218944
1276180.68555667,-8.119137,3.4864671,4.094266,9.738524146035035
1276181.842778335,-8.128709,3.4673238,4.120588,9.750768677723386
1276183.0,-8.133494,3.4577522,4.132552,9.75642152417293
1276183.899448345,-8.169388,3.4960387,4.063158,9.770897595380154
1276185.05667001,-8.138281,3.464931,4.084694,9.74279680293898
1276186.213891675,-8.119137,3.4721096,4.0799084,9.727362605124357
1276187.37111334,-8.166995,3.4816813,4.0416217,9.754825368539695
1276188.528335005,-8.128709,3.5056105,4.034443,9.728409186739642
1276189.68555667,-8.174174,3.4481807,4.0296574,9.743983245239251
1276190.842778335,-8.174174,3.460145,4.03205,9.749212850574194
1276192.0,-8.188532,3.4577522,4.063158,9.773298293032544
1276193.899448345,-8.207675,3.4553592,4.087087,9.798454789007225
1276195.05667001,-8.243568,3.462538,4.063158,9.821142281070568
1276196.213891675,-8.169388,3.5056105,4.039229,9.764403524368257
1276197.37111334,-8.17896,3.433823,4.0607653,9.75583629929352
1276198.528335005,-8.217246,3.438609,3.9985495,9.763993126961285
1276199.68555667,-8.217246,3.4290373,4.0224786,9.770453557372106
1276200.842778335,-8.257926,3.4170728,4.0440145,9.809372131700687
1276202.0,-8.2124605,3.4003224,4.0248713,9.757371001943389
1276202.899448345,-8.2124605,3.43143,4.012907,9.763331495939758
1276204.05667001,-8.231604,3.4051082,4.051193,9.78602222508064
1276205.213891675,-8.207675,3.4266443,4.0033355,9.75369238749653
1276206.37111334,-8.226818,3.3979294,4.03205,9.771585634635166
1276207.528335005,-8.262712,3.3763933,4.039229,9.797336996636886
1276208.68555667,-8.274676,3.390751,4.0153,9.802555245392753
1276209.842778335,-8.267497,3.3644288,4.039229,9.797257713754366
1276211.0,-8.243568,3.3883579,4.010514,9.773515497164386
1276211.899448345,-8.238783,3.3763933,3.988978,9.75651180093879
1276213.05667001,-8.248354,3.4003224,3.955477,9.759269154541581
1276214.213891675,-8.241176,3.3955367,3.926762,9.739923569960233
1276215.37111334,-8.241176,3.409894,3.9961565,9.773107270807184
1276216.528335005,-8.217246,3.4194658,3.9722273,9.74651055017902
1276217.68555667,-8.231604,3.4170728,3.926762,9.739360899872223
1276218.842778335,-8.176567,3.4481807,3.8908687,9.689430183761127
1276220.0,-8.183745,3.4290373,3.955477,9.714822557687057
1276220.899448345,-8.186138,3.4697168,3.9459054,9.727381942382822
1276222.05667001,-8.164602,3.4721096,3.902833,9.692697061123141
1276223.213891675,-8.200496,3.4433947,3.902833,9.712734276808622
1276224.37111334,-8.1526375,3.460145,3.905226,9.679302234071796
1276225.528335005,-8.166995,3.4505734,3.902833,9.687020674319921
1276226.68555667,-8.123923,3.4673238,3.878904,9.647090519176826
1276227.842778335,-8.140674,3.4816813,3.8573678,9.657741153785523
1276229.0,-8.126316,3.5008245,3.878904,9.661194551031059
1276230.899448345,-8.095208,3.4505734,3.8310459,9.597695663020284
1276232.05667001,-8.071279,3.4146798,3.8334389,9.565606966230751
1276233.213891675,-8.068886,3.438609,3.8860826,9.593361825236228
1276234.37111334,-8.119137,3.4792883,3.874118,9.645445711692638
1276235.528335005,-8.095208,3.4266443,3.8932614,9.614144166316441
1276236.68555667,-8.049743,3.3979294,3.9147975,9.57444129124199
1276237.842778335,-8.037778,3.4290373,3.9195836,9.57743742237266
1276239.0,-8.044957,3.438609,3.8908687,9.575187947365299
1276239.899448345,-8.083243,3.3883579,3.8573678,9.575963293581395
1276241.05667001,-8.0641,3.412287,3.8501892,9.565425670411413
1276242.213891675,-8.052135,3.3883579,3.8621538,9.551653222954226
1276243.37111334,-8.004277,3.4075012,3.8884757,9.528890700927413
1276244.528335005,-8.009064,3.4146798,3.902833,9.54134423016553
1276245.68555667,-7.9803486,3.3740003,3.8908687,9.49782612193768
1276246.842778335,-7.98992,3.3428926,3.878904,9.48997622666942
1276248.0,-8.009064,3.330928,3.9171906,9.517592641735009
1276248.899448345,-8.018635,3.359643,3.8717253,9.51714059732933
1276250.05667001,-7.970777,3.3213565,3.9459054,9.493938298175863
1276251.213891675,-7.9827414,3.304606,3.9243693,9.489217853821907
1276252.37111334,-7.9875274,3.3452854,3.9100118,9.501564115941289
1276253.528335005,-7.9540267,3.3381069,3.9530842,9.488749818202088
1276254.68555667,-7.9755626,3.3404996,3.907619,9.488836736569974
1276255.842778335,-8.016242,3.3189635,3.9147975,9.518471199877768
1276257.0,-8.006671,3.35725,3.933941,9.531725964179941
1276257.899448345,-7.970777,3.3644288,3.936334,9.505124538560999
1276259.05667001,-8.004277,3.3428926,3.9602628,9.535568293129025
1276260.213891675,-7.994706,3.3357139,4.0224786,9.551054671424888
1276261.37111334,-7.9564195,3.3740003,3.9722273,9.511418348871299
1276262.528335005,-7.9516335,3.3189635,3.9961565,9.49806616133762
1276263.68555667,-7.997099,3.3237493,3.9530842,9.519862211048075
1276264.842778335,-8.021028,3.3333209,3.979406,9.554244633250542
1276266.0,-8.001884,3.3644288,3.9746203,9.54710088083799
1276267.899448345,-8.028207,3.383572,3.9602628,9.569971189042151
1276269.05667001,-8.0617075,3.3620358,3.986585,9.601420337547092
1276270.213891675,-8.056922,3.3668218,3.9913707,9.601068753626219
1276271.37111334,-8.068886,3.383572,3.9722273,9.609061894016776
1276272.528335005,-8.123923,3.4027152,3.9674416,9.660082219714829
1276273.68555667,-8.107173,3.3859649,3.9674416,9.640104003866947
1276274.842778335,-8.119137,3.3644288,4.008121,9.659441015176782
1276276.0,-8.121531,3.4075012,3.9602628,9.656811671407198
1276276.899448345,-8.109566,3.4218585,3.9961565,9.66661487154994
1276278.05667001,-8.085636,3.4027152,3.9722273,9.629879022068362
1276279.213891675,-8.083243,3.3524642,3.9506912,9.60134337304359
1276280.37111334,-8.073672,3.3644288,3.9482985,9.59649007496781
1276281.528335005,-8.085636,3.3979294,3.9506912,9.619324024568348
1276282.68555667,-8.102386,3.35725,3.95787,9.622085085489319
1276283.842778335,-8.109566,3.3644288,3.9913707,9.644453427926535
1276285.0,-8.097601,3.359643,3.9817991,9.628762491380229
1276285.899448345,-8.119137,3.3165705,3.9482985,9.618164406545644
1276287.05667001,-8.119137,3.3261423,4.0248713,9.653144420663248
1276288.213891675,-8.147852,3.3213565,3.9913707,9.661777335398222
1276289.37111334,-8.157424,3.330928,4.012907,9.682048866206419
1276290.528335005,-8.171782,3.3763933,4.0057282,9.706900184100181
1276291.68555667,-8.181353,3.3716075,3.9961565,9.709353264618478
1276292.842778335,-8.217246,3.3787863,3.9937637,9.741122993629705
1276294.0,-8.245961,3.3883579,4.0033355,9.772591119942225
1276294.899448345,-8.23639,3.4075012,4.0224786,9.7790346531526
1276296.05667001,-8.262712,3.3859649,4.012907,9.789820758809888
1276297.213891675,-8.267497,3.3931437,4.000942,9.791448702884711
1276298.37111334,-8.286641,3.3931437,4.0057282,9.809571939896557
1276299.528335005,-8.32732,3.4170728,4.000942,9.850288411527037
1276300.68555667,-8.382357,3.3859649,4.027264,9.896844067942922
1276301.842778335,-8.391929,3.3787863,3.9985495,9.890857763918097
1276303.0,-8.394321,3.3883579,3.9913707,9.893262069426438
1276303.899448345,-8.394321,3.3979294,4.0033355,9.90137588338033
1276305.05667001,-8.389536,3.3931437,3.9985495,9.89374229339414
1276306.213891675,-8.375178,3.3859649,3.9602628,9.863673062342437
1276307.37111334,-8.377571,3.43143,4.0033355,9.898742487331472
1276308.528335005,-8.368,3.4290373,3.9985495,9.887877371243109
1276309.68555667,-8.382357,3.4051082,3.9770133,9.883081782396276
1276310.842778335,-8.387143,3.43143,3.9650488,9.891435261564949
1276312.0,-8.387143,3.4529665,3.936334,9.88746027613397
1276313.899448345,-8.420644,3.4194658,3.905226,9.891955410492995
1276315.05667001,-8.377571,3.4673238,3.9506912,9.890095608832347
1276316.213891675,-8.38475,3.4673238,3.9387267,9.891407125067664
1276317.37111334,-8.35125,3.4553592,3.8860826,9.837912468483719
1276318.528335005,-8.353642,3.4577522,3.878904,9.837951066252813
1276319.68555667,-8.305784,3.4721096,3.8142955,9.77703651882248
1276320.842778335,-8.291427,3.5343254,3.7903664,9.77783693746542
1276322.0,-8.300998,3.565433,3.823867,9.810241541734944
1276322.899448345,-8.324927,3.5103962,3.8860826,9.835086629528295
1276324.05667001,-8.401501,3.462538,3.986585,9.92306648252797
1276325.213891675,-8.478073,3.412287,4.0775156,10.007375171939012
1276326.37111334,-8.566611,3.3955367,4.1732316,10.115945605508486
1276327.528335005,-8.6551485,3.3524642,4.139731,10.163069640698861
1276328.68555667,-8.667113,3.3237493,4.137338,10.162859975925256
1276329.842778335,-8.724543,3.306999,4.058372,10.17468801660444
1276331.0,-8.743686,3.330928,3.9937637,10.173361032580024
1276331.899448345,-8.743686,3.3381069,4.020086,10.186073531534102
1276333.05667001,-8.743686,3.3763933,3.9602628,10.175252234119052
1276334.213891675,-8.789151,3.3716075,3.9722273,10.217411715191012
1276335.37111334,-8.758043,3.3644288,4.020086,10.207046085303743
1276336.528335005,-8.789151,3.3620358,4.008121,10.228269353704157
1276337.68555667,-8.743686,3.3261423,4.0535865,10.195431868215664
1276338.842778335,-8.760436,3.2854629,4.039229,10.190921268060773
1276340.0,-8.760436,3.2615337,4.0296574,10.179439068421523
1276340.899448345,-8.700614,3.1873536,4.027264,10.103403499520592
1276342.05667001,-8.671899,3.175389,4.0033355,10.065367489221755
1276343.213891675,-8.643184,3.1682103,3.9937637,10.034557023322941
1276344.37111334,-8.57379,3.1203523,3.9817991,9.954958438535849
1276345.528335005,-8.545074,3.101209,3.9626558,9.916573395908015
1276346.68555667,-8.547467,3.1275308,3.9770133,9.932636901116165
1276347.842778335,-8.49961,3.1036017,4.0033355,9.894564608405119
1276349.0,-8.5043955,3.0892444,3.9530842,9.873958095700086
1276350.899448345,-8.506788,3.101209,3.9937637,9.896114784604244
1276352.05667001,-8.559432,3.072494,3.9698346,9.92288679236124
1276353.213891675,-8.60729,3.1059947,4.000942,9.987000606182624
1276354.37111334,-8.59054,3.1945324,3.9411197,9.976714851892774
1276355.528335005,-8.6048975,3.2112827,3.984192,10.011512545948765
1276356.68555667,-8.61447,3.2447834,3.9817991,10.029578095143204
1276357.842778335,-8.624041,3.2663195,3.9124048,10.017476606652211
1276359.0,-8.609683,3.280677,3.8980472,10.00421185862464
1276359.899448345,-8.633613,3.2591407,3.8669395,10.005722994008266
1276361.05667001,-8.633613,3.2878556,3.907619,10.030889996873725
1276362.213891675,-8.626433,3.2926416,3.9147975,10.029081437277584
1276363.37111334,-8.61447,3.2734983,3.9219763,10.015327383503976
1276364.528335005,-8.588147,3.278284,3.905226,9.987702688273265
1276365.68555667,-8.612076,3.2950344,3.8932614,10.00912528923928
1276366.842778335,-8.545074,3.2878556,3.926762,9.962316192360658
1276368.0,-8.542682,3.2926416,3.9004402,9.951499294726931
1276368.899448345,-8.523539,3.2663195,3.874118,9.916065269981095
1276370.05667001,-8.525931,3.278284,3.9219763,9.94085225215518
1276371.213891675,-8.521146,3.3022132,3.907619,9.939015415056526
1276372.37111334,-8.485252,3.2950344,3.8501892,9.883355203395453
1276373.528335005,-8.432608,3.275891,3.8693323,9.83931257626102
1276374.68555667,-8.4541445,3.2088897,3.8166883,9.815123122661438
1276375.842778335,-8.411072,3.2304258,3.8214743,9.787004080107975
1276377.0,-8.399107,3.2423904,3.823867,9.78161810423767
1276377.899448345,-8.427822,3.1945324,3.8932614,9.8178768197133
1276379.05667001,-8.379964,3.1873536,3.8645465,9.763080418771075
1276380.213891675,-8.411072,3.1921394,3.9243693,9.815118977424515
1276381.37111334,-8.430215,3.204104,3.9530842,9.84691231205654
1276382.528335005,-8.411072,3.1849606,3.936334,9.81757768353744
1276383.68555667,-8.435001,3.1849606,4.0033355,9.865085454222564
1276384.842778335,-8.470895,3.1586387,3.9411197,9.862326552487033
1276386.0,-8.492431,3.1825678,3.9171906,9.878993080678121
1276387.899448345,-8.511574,3.201711,3.933941,9.908266098388658
1276389.05667001,-8.533111,3.204104,3.936334,9.9284939009244
1276390.213891675,-8.547467,3.204104,3.9530842,9.947479542637655
1276391.37111334,-8.5642185,3.2376046,3.9722273,9.980306196933475
1276392.528335005,-8.552254,3.2471762,3.9506912,9.96459546153881
1276393.68555667,-8.525931,3.2711053,3.955477,9.951755000902006
1276394.842778335,-8.525931,3.2208543,3.9961565,9.95161638182872
1276396.0,-8.513967,3.2495692,4.0224786,9.961308556115284
1276396.899448345,-8.521146,3.2328188,3.9961565,9.951397556094404
1276398.05667001,-8.497216,3.1873536,4.000942,9.918136902133028
1276399.213891675,-8.461323,3.1849606,4.0033355,9.887601127646768
1276400.37111334,-8.4541445,3.2160685,4.027264,9.901237859443055
1276401.528335005,-8.420644,3.1610315,4.010514,9.84802457668157
1276402.68555667,-8.406286,3.177782,4.010514,9.841146543849247
1276403.842778335,-8.430215,3.1993182,4.008121,9.867583080051428
1276405.0,-8.411072,3.1873536,3.9961565,9.842490636678768
1276406.899448345,-8.44218,3.1921394,4.0248713,9.882294575805563
1276408.05667001,-8.420644,3.1801748,4.012907,9.85516005572411
1276409.213891675,-8.408679,3.1969252,4.0440145,9.863075916550894
1276410.37111334,-8.411072,3.15146,4.012907,9.837746434597356
1276411.528335005,-8.411072,3.1131735,4.010514,9.824571439736303
1276412.68555667,-8.423037,3.1658175,4.0153,9.853557065175766
1276413.842778335,-8.456537,3.1825678,4.0296574,9.893426837822203
1276415.0,-8.463716,3.1897464,4.034443,9.9038225420904
1276415.899448345,-8.451752,3.1490672,4.020086,9.874706453713744
1276417.05667001,-8.44218,3.1682103,4.0248713,9.874591061861235
1276418.213891675,-8.449359,3.1682103,4.0751224,9.901305297327664
1276419.37111334,-8.49961,3.1634245,4.03205,9.925122262309934
1276420.528335005,-8.449359,3.177782,4.065551,9.900437913749371
1276421.68555667,-8.466109,3.1610315,4.051193,9.90349869829457
1276422.842778335,-8.427822,3.2136755,4.0607653,9.891698979683337
1276424.0,-8.4541445,3.175389,4.087087,9.912614926131765
1276424.899448345,-8.446965,3.1658175,4.0488005,9.887689499743178
1276426.05667001,-8.444572,3.1562457,4.058372,9.886509316858833
1276427.213891675,-8.468502,3.228033,4.0799084,9.938882015875004
1276428.37111334,-8.461323,3.1993182,4.118195,9.939273309110945
1276429.528335005,-8.449359,3.2136755,4.120588,9.93471807329857
1276430.68555667,-8.490038,3.1801748,4.1253734,9.960570399802744
1276431.842778335,-8.47568,3.1921394,4.1540885,9.964103405588716
1276433.0,-8.463716,3.172996,4.1038375,9.926926733439622
1276433.899448345,-8.478073,3.1969252,4.108623,9.948810757264058
1276435.05667001,-8.418251,3.1849606,4.118195,9.898002524781369
1276436.213891675,-8.423037,3.1897464,4.1301594,9.908594807998274
1276437.37111334,-8.379964,3.1682103,4.1277666,9.864066618306957
1276438.528335005,-8.391929,3.1849606,4.1516957,9.889642235692444
1276439.68555667,-8.401501,3.1610315,4.118195,9.876075599903954
1276440.842778335,-8.401501,3.1825678,4.120588,9.883987167147772
1276442.0,-8.389536,3.172996,4.1540885,9.88476955609711
1276443.899448345,-8.44218,3.204104,4.108623,9.920557875006073
1276445.05667001,-8.425429,3.2328188,4.118195,9.919601871330292
1276446.213891675,-8.423037,3.206497,4.1349454,9.915994593350643
1276447.37111334,-8.451752,3.2352118,4.1301594,9.947709481572712
1276448.528335005,-8.461323,3.2112827,4.120588,9.944122332081012
1276449.68555667,-8.468502,3.2232473,4.1062303,9.948164481832785
1276450.842778335,-8.48286,3.254355,4.1038375,9.969514655790984
1276452.0,-8.47568,3.2184613,4.144517,9.968583939822482
1276452.899448345,-8.466109,3.2112827,4.137338,9.955144594903897
1276454.05667001,-8.490038,3.2352118,4.0990515,9.967425135507941
1276455.213891675,-8.513967,3.1945324,4.0918727,9.971764814953472
1276456.37111334,-8.530717,3.2399976,4.1110163,10.008554940697506
1276457.528335005,-8.5043955,3.2328188,4.0775156,9.970054848509964
1276458.68555667,-8.502003,3.2328188,4.0918727,9.973895658099083
1276459.842778335,-8.547467,3.2471762,4.1110163,10.02515837325282
1276461.0,-8.5546465,3.278284,4.063158,10.021894813735686
1276461.899448345,-8.609683,3.275891,4.070337,10.071035026149945
1276463.05667001,-8.571397,3.2926416,4.0535865,10.037026389854805
1276464.213891675,-8.57379,3.278284,4.0727296,10.042118668063637
1276465.37111334,-8.580969,3.309392,4.0488005,10.048775541200293
1276466.528335005,-8.559432,3.3165705,4.063158,10.038564089403335
1276467.68555667,-8.547467,3.2926416,4.0918727,10.032153458512527
1276468.842778335,-8.485252,3.2711053,4.1038375,9.97702929802245
1276470.0,-8.506788,3.2615337,4.0559793,9.972663246856788
1276470.899448345,-8.478073,3.2376046,4.0990515,9.958013282724743
1276472.05667001,-8.466109,3.2423904,4.0607653,9.933675650411445
1276473.213891675,-8.406286,3.201711,4.087087,9.880327817784488
1276474.37111334,-8.396714,3.2184613,4.065551,9.868738727466376
1276475.528335005,-8.387143,3.2136755,4.087087,9.867935856465538
1276476.68555667,-8.334499,3.175389,4.0440145,9.792906726735032
1276477.842778335,-8.34407,3.1945324,4.051193,9.810234764917645
1276479.0,-8.339285,3.1825678,4.063158,9.807225145054327
1276480.899448345,-8.317748,3.2136755,4.036836,9.788191196625668
1276482.05667001,-8.31057,3.2088897,4.0535865,9.787446569184853
1276483.213891675,-8.300998,3.1825678,4.0153,9.754893115129496
1276484.37111334,-8.315355,3.2088897,4.0224786,9.778672505521854
1276485.528335005,-8.281855,3.1945324,4.012907,9.741538999887224
1276486.68555667,-8.267497,3.2184613,4.039229,9.748095747326639
1276487.842778335,-8.308177,3.254355,3.9913707,9.774848929480829
1276489.0,-8.262712,3.2471762,4.020086,9.7456479680002
1276489.899448345,-8.272284,3.2184613,4.010514,9.740297647425857
1276491.05667001,-8.245961,3.256748,3.9722273,9.7149817329674
1276492.213891675,-8.243568,3.2232473,4.027264,9.724432726554145
1276493.37111334,-8.25314,3.2423904,3.9722273,9.716275268253646
1276494.528335005,-8.274676,3.2519622,3.986585,9.743632844962388
1276495.68555667,-8.300998,3.2495692,3.9817991,9.763246993411231
1276496.842778335,-8.320142,3.275891,4.020086,9.803943910051762
1276498.0,-8.32732,3.2687125,3.9770133,9.790065095719902
1276498.899448345,-8.32732,3.275891,3.95787,9.784705164857089
1276500.05667001,-8.348856,3.309392,3.9602628,9.815251059624702
1276501.213891675,-8.298605,3.3404996,3.9817991,9.791859200192064
1276502.37111334,-8.317748,3.3189635,4.0153,9.814432464276079
1276503.528335005,-8.341678,3.2998202,3.9626558,9.80688769168311
1276504.68555667,-8.32732,3.304606,3.9961565,9.80989021193042
1276505.842778335,-8.324927,3.3237493,3.9746203,9.80557624485943
1276507.0,-8.32732,3.3404996,3.9602628,9.80749088223201
1276507.899448345,-8.303391,3.3213565,3.9626558,9.781633405942326
1276509.05667001,-8.332106,3.3237493,3.9506912,9.802002895441518
1276510.213891675,-8.317748,3.3261423,3.9435124,9.787719062187424
1276511.37111334,-8.291427,3.3141778,3.9387267,9.759359825502631
1276512.528335005,-8.296212,3.3022132,3.9387267,9.759370552678648
1276513.68555667,-8.274676,3.3213565,3.95787,9.755327100716215
1276514.842778335,-8.300998,3.3333209,3.9506912,9.778832086509015
1276516.0,-8.25314,3.2878556,3.9817991,9.735452654027556
1276516.899448345,-8.250747,3.3141778,3.9387267,9.724822289652122
1276518.05667001,-8.222033,3.3261423,4.0033355,9.730968316591033
1276519.213891675,-8.241176,3.304606,3.988978,9.733927684275036
1276520.37111334,-8.248354,3.2926416,3.9961565,9.738896199665485
1276521.528335005,-8.207675,3.2830698,3.9530842,9.683560858980888
1276522.68555667,-8.207675,3.309392,3.9817991,9.70426341295669
1276523.842778335,-8.229211,3.3141778,3.9722273,9.720199478169114
1276525.0,-8.174174,3.278284,3.9722273,9.66141067804269
1276526.899448345,-8.186138,3.3117847,3.9770133,9.684906196890859
1276528.05667001,-8.169388,3.309392,3.9530842,9.660116479447732
1276529.213891675,-8.171782,3.3189635,3.9746203,9.674251717783052
1276530.37111334,-8.128709,3.328535,3.9937637,9.649103779333275
1276531.528335005,-8.133494,3.2878556,4.012907,9.64713126712477
1276532.68555667,-8.145459,3.3117847,4.010514,9.664400796947067
1276533.842778335,-8.2028885,3.3213565,4.0153,9.718097696232762
1276535.0,-8.183745,3.3261423,4.0224786,9.70655649096693
1276535.899448345,-8.231604,3.330928,4.0176926,9.74660143753169
1276537.05667001,-8.214853,3.3524642,4.0559793,9.75570572054729
1276538.213891675,-8.214853,3.3740003,4.065551,9.767107697246411
1276539.37111334,-8.238783,3.3452854,4.063158,9.776386482822074
1276540.528335005,-8.25314,3.3620358,4.0535865,9.790258836877802
1276541.68555667,-8.281855,3.3644288,4.094266,9.832167485862435
1276542.842778335,-8.281855,3.3787863,4.094266,9.837089670265728
1276544.0,-8.334499,3.3476784,4.1014442,9.873837591156803
1276544.899448345,-8.320142,3.3452854,4.1014442,9.860909787303138
1276546.05667001,-8.315355,3.3165705,4.070337,9.834246892928013
1276547.213891675,-8.320142,3.3357139,4.1110163,9.861653266145739
1276548.37111334,-8.293819,3.3524642,4.0535865,9.821304054453506
1276549.528335005,-8.370393,3.3428926,4.0488005,9.880849932995845
1276550.68555667,-8.353642,3.330928,4.0607653,9.867534181700721
1276551.842778335,-8.329713,3.3117847,4.051193,9.836879651839402
1276553.0,-8.375178,3.3261423,4.0990515,9.899952137822966
1276553.899448345,-8.341678,3.3237493,4.1014442,9.87181572916797
1276555.05667001,-8.360821,3.304606,4.063158,9.865748909344946
1276556.213891675,-8.320142,3.3261423,4.115802,9.860416401106866
1276557.37111334,-8.348856,3.3165705,4.0966587,9.873482105847557
1276558.528335005,-8.358428,3.3381069,4.094266,9.887835475257848
1276559.68555667,-8.336892,3.3476784,4.115802,9.881829030735886
1276560.842778335,-8.317748,3.3357139,4.0918727,9.851666925305713
1276562.0,-8.334499,3.3428926,4.1038375,9.873210559009769
1276563.899448345,-8.339285,3.359643,4.0918727,9.877970317412343
1276565.05667001,-8.32732,3.3500714,4.0296574,9.838972280115069
1276566.213891675,-8.356035,3.3763933,4.08948,9.896827739630002
1276567.37111334,-8.32732,3.383572,4.0679436,9.866153404157314
1276568.528335005,-8.356035,3.3931437,4.051193,9.886804833378866
1276569.68555667,-8.32732,3.3859649,4.0559793,9.862047696521271
1276570.842778335,-8.329713,3.4003224,4.051193,9.867039870678529
1276572.0,-8.32732,3.412287,4.087087,9.883938541813077
1276572.899448345,-8.358428,3.43143,4.063158,9.906931079251938
1276574.05667001,-8.293819,3.4194658,4.065551,9.849308853708044
1276575.213891675,-8.317748,3.43143,4.0775156,9.878551366705917
1276576.37111334,-8.286641,3.4003224,4.0559793,9.832679165357284
1276577.528335005,-8.291427,3.4290373,4.0248713,9.833902962846643
1276578.68555667,-8.298605,3.4242516,4.036836,9.843189973632713
1276579.842778335,-8.296212,3.3883579,4.020086,9.821873255893319
1276581.0,-8.312963,3.3931437,4.0296574,9.84159117061837
1276581.899448345,-8.31057,3.436216,4.008121,9.845719276629666
1276583.05667001,-8.32732,3.4194658,4.012907,9.85598434101935
1276584.213891675,-8.291427,3.4075012,3.9961565,9.814687610760858
1276585.37111334,-8.300998,3.3955367,3.9698346,9.807946983360385
1276586.528335005,-8.31057,3.3668218,4.010514,9.82269236523527
1276587.68555667,-8.315355,3.3668218,4.012907,9.827717965002314
1276588.842778335,-8.269891,3.359643,4.012907,9.786813619865201
1276590.0,-8.305784,3.383572,4.020086,9.828311084883099
1276590.899448345,-8.260319,3.3740003,4.010514,9.78268728675087
1276592.05667001,-8.317748,3.3524642,4.020086,9.827768793128055
1276593.213891675,-8.298605,3.359643,4.0679436,9.83372824346163
1276594.37111334,-8.320142,3.3381069,4.051193,9.837676824293458
1276595.528335005,-8.291427,3.3548572,4.058372,9.82207777504866
1276596.68555667,-8.286641,3.328535,4.0775156,9.817010633454023
1276597.842778335,-8.279462,3.35725,4.0224786,9.798007586208636
1276599.0,-8.303391,3.3524642,4.0248713,9.817581539907184
1276600.899448345,-8.31057,3.35725,4.0176926,9.822349775664414
1276602.05667001,-8.312963,3.3213565,3.9937637,9.80239314304925
1276603.213891675,-8.332106,3.3740003,4.020086,9.84728185171076
1276604.37111334,-8.32732,3.3428926,4.0248713,9.83457057014176
1276605.528335005,-8.363214,3.35725,4.027264,9.870832350819864
1276606.68555667,-8.322535,3.359643,4.0153,9.832315292120875
1276607.842778335,-8.329713,3.3620358,4.020086,9.841163286433503
1276609.0,-8.334499,3.3500714,4.03205,9.846028598810738
1276609.899448345,-8.353642,3.3787863,4.000942,9.859364503485795
1276611.05667001,-8.353642,3.3931437,4.0248713,9.874023891736206
1276612.213891675,-8.360821,3.3787863,4.03205,9.878104669298088
1276613.37111334,-8.368,3.4266443,4.0488005,9.907477007165989
1276614.528335005,-8.391929,3.441002,4.0440145,9.930710970582883
1276615.68555667,-8.420644,3.4481807,4.0224786,9.94874512700202
1276616.842778335,-8.370393,3.4433947,4.0296574,9.907501440616189
1276618.0,-8.372786,3.441002,3.988978,9.892218439272558
1276618.899448345,-8.372786,3.4433947,4.012907,9.90272361789589
1276620.05667001,-8.348856,3.3883579,3.988978,9.85374605171619
1276621.213891675,-8.339285,3.441002,4.012907,9.87358048865142
1276622.37111334,-8.332106,3.4529665,3.9937637,9.86393007562381
1276623.528335005,-8.300998,3.4218585,4.0176926,9.83654091732053
1276624.68555667,-8.360821,3.4481807,4.008121,9.892336017571102
1276625.842778335,-8.348856,3.4146798,4.0416217,9.884236976680342
1276627.0,-8.315355,3.4481807,4.027264,9.861740933606677
1276627.899448345,-8.305784,3.4553592,4.008121,9.848380019390074
1276629.05667001,-8.281855,3.4457877,3.9698346,9.809289569884939
1276630.213891675,-8.336892,3.4003224,4.020086,9.860377887839885
1276631.37111334,-8.274676,3.390751,4.0296574,9.80844503529238
1276632.528335005,-8.260319,3.4003224,4.039229,9.803592878131148
1276633.68555667,-8.260319,3.4027152,4.051193,9.809358054292904
1276634.842778335,-8.267497,3.383572,4.020086,9.7959766012169
1276636.0,-8.260319,3.3955367,4.034443,9.799962743962698
1276637.899448345,-8.241176,3.3668218,4.008121,9.763068413494409
1276639.05667001,-8.224425,3.3644288,4.03205,9.757969816175619
1276640.213891675,-8.233996,3.3404996,4.0416217,9.761779226735618
1276641.37111334,-8.200496,3.3620358,4.039229,9.739958433224375
1276642.528335005,-8.198103,3.3644288,4.0464077,9.741749802961362
1276643.68555667,-8.2124605,3.3716075,4.008121,9.740496832747164
1276644.842778335,-8.200496,3.3692145,4.0248713,9.73649474783353
1276646.0,-8.205282,3.3740003,4.039229,9.748122980264718
1276646.899448345,-8.229211,3.3883579,4.0559793,9.780176431079447
1276648.05667001,-8.176567,3.3787863,4.0464077,9.728610385927478
1276649.213891675,-8.233996,3.381179,4.0990515,9.799657379608188
1276650.37111334,-8.200496,3.3931437,4.0799084,9.767661509658094
1276651.528335005,-8.229211,3.3500714,4.0966587,9.783941157422435
1276652.68555667,-8.219639,3.3859649,4.0679436,9.776266604749177
1276653.842778335,-8.248354,3.359643,4.115802,9.811338894359373
1276655.0,-8.233996,3.3524642,4.108623,9.79379851214158
1276656.899448345,-8.241176,3.330928,4.120588,9.797515433511906
1276658.05667001,-8.231604,3.3357139,4.0966587,9.781048212730317
1276659.213891675,-8.245961,3.3716075,4.1110163,9.811425226053702
1276660.37111334,-8.224425,3.3787863,4.115802,9.797815549646598
1276661.528335005,-8.233996,3.3476784,4.1014442,9.789151409777876
1276662.68555667,-8.219639,3.3692145,4.118195,9.79150661008592
1276663.842778335,-8.222033,3.328535,4.1277666,9.78363066572883
1276665.0,-8.205282,3.3692145,4.187589,9.808881724205632
1276665.899448345,-8.257926,3.3500714,4.120588,9.81812434593889
1276667.05667001,-8.210068,3.3668218,4.1349454,9.789712920130007
1276668.213891675,-8.23639,3.3859649,4.1540885,9.826460695589448
1276669.37111334,-8.229211,3.3763933,4.1804104,9.828315039274742
1276670.528335005,-8.226818,3.3931437,4.137338,9.81384350294102
1276671.68555667,-8.248354,3.3524642,4.1516957,9.823998020510597
1276672.842778335,-8.222033,3.35725,4.1277666,9.793437155547819
1276674.0,-8.233996,3.3883579,4.132552,9.81619302067825
1276674.899448345,-8.260319,3.3716075,4.108623,9.822494086124271
1276676.05667001,-8.257926,3.3668218,4.1014442,9.815837986649173
1276677.213891675,-8.262712,3.3620358,4.1229806,9.827240881519186
1276678.37111334,-8.207675,3.35725,4.087087,9.764288843213007
1276679.528335005,-8.2124605,3.3213565,4.084694,9.755031601065602
1276680.68555667,-8.231604,3.3452854,4.0607653,9.769342538879126
1276681.842778335,-8.200496,3.3428926,4.070337,9.746317708484561
1276683.0,-8.250747,3.359643,4.1110163,9.811344564549943
1276683.899448345,-8.198103,3.3524642,4.1229806,9.76969180879658
1276685.05667001,-8.229211,3.3452854,4.1277666,9.79537162102846
1276686.213891675,-8.279462,3.359643,4.1421237,9.848547143766673
1276687.37111334,-8.257926,3.3787863,4.1277666,9.830971253473344
1276688.528335005,-8.274676,3.3740003,4.1349454,9.846416322213745
1276689.68555667,-8.312963,3.3787863,4.137338,9.881250752140676
1276690.842778335,-8.303391,3.409894,4.118195,9.875890301544564
1276692.0,-8.296212,3.4003224,4.1349454,9.873555561896987
1276693.899448345,-8.317748,3.381179,4.0799084,9.862198323595788
1276695.05667001,-8.300998,3.4075012,4.1038375,9.867072232958046
1276696.213891675,-8.272284,3.409894,4.087087,9.836785034423645
1276697.37111334,-8.241176,3.43143,4.082301,9.81615378661505
1276698.528335005,-8.248354,3.383572,4.0464077,9.79067507698623
1276699.68555667,-8.255533,3.4170728,4.0679436,9.817248940888167
1276700.842778335,-8.243568,3.383572,4.0464077,9.786643353286523
1276702.0,-8.250747,3.409894,4.0679436,9.810727204546357
1276702.899448345,-8.272284,3.390751,4.063158,9.820240722793969
1276704.05667001,-8.272284,3.3979294,4.034443,9.810878508283006
1276705.213891675,-8.245961,3.409894,4.051193,9.799766049656796
1276706.37111334,-8.2028885,3.3787863,4.0296574,9.74380394742601
1276707.528335005,-8.200496,3.3548572,4.036836,9.736490454434998
1276708.68555667,-8.19571,3.3548572,4.0679436,9.745403756093063
1276709.842778335,-8.143066,3.3333209,4.020086,9.673760569195869
1276711.0,-8.121531,3.3381069,4.051193,9.670283769519775
1276711.899448345,-8.104779,3.3428926,4.0153,9.642873413250625
1276713.05667001,-8.080851,3.2926416,4.034443,9.613447451903014
1276714.213891675,-8.102386,3.3213565,4.0057282,9.629430217067023
1276715.37111334,-8.085636,3.2998202,4.020086,9.613917740662234
1276716.528335005,-8.085636,3.3548572,4.0224786,9.633945736007952
1276717.68555667,-8.135887,3.3548572,4.0559793,9.690133755072184
1276718.842778335,-8.126316,3.3716075,4.0918727,9.702998044878578
1276720.0,-8.126316,3.3859649,4.039229,9.685924888740827
1276720.899448345,-8.174174,3.3955367,4.051193,9.734421132587798
1276722.05667001,-8.126316,3.3859649,4.0535865,9.69192104532792
1276723.213891675,-8.159817,3.3859649,4.036836,9.713053931097933
1276724.37111334,-8.140674,3.3883579,4.008121,9.685895745020666
1276725.528335005,-8.1119585,3.3763933,4.020086,9.662556280270927
1276726.68555667,-8.164602,3.3859649,4.0296574,9.714094033094943
1276727.842778335,-8.145459,3.4027152,4.0057282,9.693958503380715
1276729.0,-8.131102,3.3931437,3.986585,9.670630996242112
1276729.899448345,-8.133494,3.4242516,4.012907,9.69446472265424
1276731.05667001,-8.104779,3.3620358,4.0176926,9.650522327180918
1276732.213891675,-8.102386,3.3931437,3.9913707,9.648477762147984
1276733.37111334,-8.109566,3.3955367,4.0153,9.665265866979702
1276734.528335005,-8.088029,3.3644288,4.034443,9.644289739289226
1276735.68555667,-8.078458,3.383572,4.0224786,9.637965408965004
1276736.842778335,-8.097601,3.3644288,4.027264,9.64932010201581
1276738.0,-8.085636,3.3979294,4.0224786,9.64902937187665
1276739.899448345,-8.099994,3.4051082,4.0607653,9.679590873349314
1276741.05667001,-8.128709,3.3955367,4.039229,9.691282185664026
1276742.213891675,-8.140674,3.4027152,4.0751224,9.71883050997232
1276743.37111334,-8.157424,3.433823,4.034443,9.7268410612775
1276744.528335005,-8.176567,3.4242516,4.063158,9.751461421682166
1276745.68555667,-8.186138,3.460145,4.027264,9.75726980777743
1276746.842778335,-8.181353,3.441002,4.034443,9.749449317518502
1276748.0,-8.174174,3.464931,4.034443,9.751902262496586
1276748.899448345,-8.188532,3.4792883,4.108623,9.799912568266612
1276750.05667001,-8.214853,3.5032175,4.087087,9.821436901466313
1276751.213891675,-8.19571,3.4745026,4.08948,9.796207296291088
1276752.37111334,-8.210068,3.4984317,4.118195,9.828721736940867
1276753.528335005,-8.241176,3.4984317,4.094266,9.844745822076712
1276754.68555667,-8.217246,3.5247536,4.144517,9.855153013957619
1276755.842778335,-8.265104,3.5391111,4.108623,9.885243267876021
1276757.0,-8.257926,3.567826,4.1062303,9.888571760592633
1276757.899448345,-8.262712,3.541504,4.1014442,9.881118595719498
1276759.05667001,-8.272284,3.5773976,4.1014442,9.902035179237417
1276760.213891675,-8.303391,3.5606472,4.0727296,9.910178453310769
1276761.37111334,-8.293819,3.565433,4.082301,9.907821533356916
1276762.528335005,-8.262712,3.5989337,4.115802,9.907802959039087
1276763.68555667,-8.298605,3.6396132,4.0990515,9.94564489569638
1276764.842778335,-8.274676,3.5989337,4.0559793,9.893106426396118
1276766.0,-8.286641,3.5893621,4.094266,9.915389726407803
1276766.899448345,-8.291427,3.5821834,4.0918727,9.915806664138318
1276768.05667001,-8.262712,3.596541,4.0966587,9.898996376598523
1276769.213891675,-8.248354,3.5726118,4.08948,9.875360522695626
1276770.37111334,-8.2124605,3.5893621,4.087087,9.850497850085835
1276771.528335005,-8.166995,3.5773976,4.0966587,9.812247113826498
1276772.68555667,-8.1526375,3.5367181,4.1014442,9.787528679446488
1276773.842778335,-8.128709,3.5534685,4.1564813,9.796906919248695
1276775.0,-8.1622095,3.5582542,4.1540885,9.825440862350154
1276776.899448345,-8.159817,3.5989337,4.1564813,9.839272028343071
1276778.05667001,-8.183745,3.6037195,4.194768,9.877072189344839
1276779.213891675,-8.169388,3.5558615,4.1971607,9.84881765712772
1276780.37111334,-8.169388,3.567826,4.216304,9.861313405486918
1276781.528335005,-8.181353,3.5462897,4.1780176,9.84715891071353
1276782.68555667,-8.210068,3.5582542,4.2067323,9.887516683187185
1276783.842778335,-8.226818,3.5534685,4.168446,9.883502154627793
1276785.0,-8.217246,3.5343254,4.175625,9.871698536636243
1276785.899448345,-8.250747,3.5367181,4.166053,9.896423524470121
1276787.05667001,-8.245961,3.543897,4.132552,9.88094452938756
1276788.213891675,-8.298605,3.541504,4.1516957,9.932052794535451
1276789.37111334,-8.289034,3.5893621,4.1780176,9.952257834480685
1276790.528335005,-8.305784,3.5582542,4.175625,9.95404766650726
1276791.68555667,-8.250747,3.5558615,4.2019467,9.918434006174168
1276792.842778335,-8.267497,3.5367181,4.2043395,9.926547848831278
1276794.0,-8.248354,3.5391111,4.242626,9.927765431522605
1276794.899448345,-8.245961,3.5247536,4.245019,9.921690736189822
1276796.05667001,-8.2124605,3.5175748,4.2665553,9.900572411008032
1276797.213891675,-8.233996,3.5319324,4.292877,9.934889508359655
1276798.37111334,-8.248354,3.5271466,4.2856984,9.941997667620432
1276799.528335005,-8.25314,3.5343254,4.2785196,9.945426379008056
1276800.68555667,-8.207675,3.512789,4.2856984,9.903172534087677
1276801.842778335,-8.219639,3.5606472,4.271341,9.923962298974631
1276803.0,-8.205282,3.5989337,4.2474117,9.915618116174935
1276803.899448345,-8.210068,3.5773976,4.2737336,9.923093723072393
1276805.05667001,-8.243568,3.5773976,4.2617693,9.945695778854903
1276806.213891675,-8.248354,3.5630403,4.2019467,9.919019909163454
1276807.37111334,-8.250747,3.5726118,4.2067323,9.926478619096075
1276808.528335005,-8.233996,3.5893621,4.2019467,9.916580382499468
1276809.68555667,-8.262712,3.5797906,4.2115183,9.941035998628475
1276810.842778335,-8.233996,3.594148,4.22109,9.926438976894987
1276812.0,-8.190925,3.6300416,4.249805,9.916112994080924
1276813.899448345,-8.19571,3.5893621,4.22109,9.892966363892906
1276815.05667001,-8.183745,3.5630403,4.240233,9.88172628131027
1276816.213891675,-8.164602,3.5750046,4.192375,9.849740699584439
1276817.37111334,-8.159817,3.5391111,4.2043395,9.837905848446226
1276818.528335005,-8.143066,3.5175748,4.187589,9.8091160655215
1276819.68555667,-8.121531,3.491253,4.1851964,9.780796603576977
1276820.842778335,-8.128709,3.5103962,4.2306614,9.813118126727376
1276822.0,-8.114351,3.5247536,4.218697,9.801223621044617
1276822.899448345,-8.128709,3.512789,4.23784,9.81707107190337
1276824.05667001,-8.097601,3.5056105,4.216304,9.77945122966147
1276825.213891675,-8.116744,3.515182,4.2521977,9.814235728498948
1276826.37111334,-8.097601,3.5080032,4.264162,9.80103596405274
1276827.528335005,-8.104779,3.4984317,4.23784,9.792127187899773
1276828.68555667,-8.1526375,3.4984317,4.268948,9.845224202255384
1276829.842778335,-8.143066,3.5486827,4.225876,9.836701721258569
1276831.0,-8.159817,3.5343254,4.242626,9.852611069277533
1276831.899448345,-8.145459,3.5534685,4.288091,9.867287627583087
1276833.05667001,-8.147852,3.5462897,4.307235,9.875015756719332
1276834.213891675,-8.143066,3.5582542,4.2737336,9.860806037842067
1276835.37111334,-8.186138,3.5510757,4.2809124,9.896929067071676
1276836.528335005,-8.176567,3.5367181,4.264162,9.876623936680014
1276837.68555667,-8.181353,3.5797906,4.2593765,9.894024753314982
1276838.842778335,-8.241176,3.5510757,4.2569833,9.932221670229948
1276840.0,-8.181353,3.5367181,4.2665553,9.881619601939487
1276840.899448345,-8.183745,3.5510757,4.240233,9.877418526439207
1276842.05667001,-8.181353,3.5391111,4.2115183,9.858840229965546
1276843.213891675,-8.2028885,3.5343254,4.216304,9.877046886439965
1276844.37111334,-8.155031,3.5223608,4.2354474,9.841268764468552
1276845.528335005,-8.157424,3.5367181,4.23784,9.849427856492154
1276846.68555667,-8.2124605,3.5175748,4.2809124,9.90676793480745
1276847.842778335,-8.147852,3.48886,4.326378,9.862919593730247
1276849.0,-8.095208,3.5319324,4.314413,9.829603174899928
1276850.899448345,-8.102386,3.5103962,4.3335567,9.836221532991484
1276852.05667001,-8.119137,3.5056105,4.345521,9.853590379344995
1276853.213891675,-8.138281,3.5080032,4.402951,9.895639524284029
1276854.37111334,-8.147852,3.493646,4.398165,9.89630789509123
1276855.528335005,-8.169388,3.5080032,4.398165,9.919114986377526
1276856.68555667,-8.17896,3.491253,4.319199,9.886339777349857
1276857.842778335,-8.2028885,3.5175748,4.36945,9.937444617180379
1276859.0,-8.250747,3.5103962,4.3550925,9.968176273649041
1276859.899448345,-8.245961,3.5103962,4.345521,9.96003549471268
1276861.05667001,-8.200496,3.5103962,4.3335567,9.917193645336635
1276862.213891675,-8.222033,3.493646,4.331164,9.928059761166882
1276863.37111334,-8.217246,3.5558615,4.345521,9.952428627884714
1276864.528335005,-8.269891,3.5319324,4.350307,9.989535255671294
1276865.68555667,-8.248354,3.543897,4.3407354,9.971786874414143
1276866.842778335,-8.224425,3.5582542,4.3790216,9.97387435782651
1276868.0,-8.231604,3.5462897,4.395772,9.982899705252283
1276868.899448345,-8.207675,3.5223608,4.36945,9.943090455864395
1276870.05667001,-8.198103,3.5295393,4.376629,9.94089643203743
1276871.213891675,-8.224425,3.5510757,4.398165,9.97973750030433
1276872.37111334,-8.174174,3.5056105,4.395772,9.921150993507268
1276873.528335005,-8.181353,3.5582542,4.371843,9.935226272162886
1276874.68555667,-8.164602,3.512789,4.3862004,9.911567299165412
1276875.842778335,-8.174174,3.5008245,4.3862004,9.9152229783821
1276877.0,-8.138281,3.515182,4.3885937,9.891808570315373
1276877.899448345,-8.088029,3.484074,4.3838077,9.837314404495583
1276879.05667001,-8.114351,3.5080032,4.42688,9.886659958591235
1276880.213891675,-8.114351,3.493646,4.3862004,9.863417687266272
1276881.37111334,-8.123923,3.4673238,4.3790216,9.858817850900888
1276882.528335005,-8.116744,3.491253,4.3885937,9.865603647786825
1276883.68555667,-8.085636,3.5080032,4.3670573,9.836401040888354
1276884.842778335,-8.054528,3.5080032,4.3909864,9.82152072333909
1276886.0,-8.073672,3.4960387,4.381415,9.828695923555001
1276887.899448345,-8.090423,3.4577522,4.350307,9.815098857871114
1276889.05667001,-8.090423,3.48886,4.3550925,9.828220546064543
1276890.213891675,-8.088029,3.5056105,4.307235,9.811105515066906
1276891.37111334,-8.044957,3.484074,4.307235,9.767925988384127
1276892.528335005,-8.088029,3.5080032,4.307235,9.811960706264383
1276893.68555667,-8.023421,3.543897,4.29527,9.76646480886252
1276894.842778335,-8.023421,3.5367181,4.3168063,9.773355416325977
1276896.0,-8.001884,3.512789,4.3168063,9.74703291980163
1276896.899448345,-8.028207,3.4984317,4.2856984,9.74978680639615
1276898.05667001,-8.052135,3.515182,4.2904844,9.777609060398781
1276899.213891675,-7.98992,3.5008245,4.307235,9.72866214499328
1276900.37111334,-7.997099,3.5103962,4.326378,9.746487597881579
1276901.528335005,-7.97317,3.5103962,4.3335567,9.730058324696174
1276902.68555667,-7.9540267,3.4792883,4.338342,9.705318084833376
1276903.842778335,-7.939669,3.4553592,4.338342,9.684991602451168
1276905.0,-8.006671,3.5367181,4.323985,9.762786574607356
1276906.899448345,-7.9875274,3.5080032,4.371843,9.758057779784357
1276908.05667001,-7.994706,3.491253,4.3885937,9.76544551979707
1276909.213891675,-7.970777,3.460145,4.3862004,9.733686010639246
1276910.37111334,-7.9540267,3.484074,4.376629,9.724206588993772
1276911.528335005,-7.9444547,3.4697168,4.371843,9.709083703893139
1276912.68555667,-7.9827414,3.4433947,4.323985,9.7096845262597
1276913.842778335,-7.97317,3.441002,4.245019,9.666029222140029
1276915.0,-7.9324903,3.433823,4.268948,9.640511385897902
1276915.899448345,-7.9492407,3.441002,4.249805,9.648407381975819
1276917.05667001,-7.9013824,3.438609,4.216304,9.593388093177861
1276918.213891675,-7.872668,3.441002,4.213911,9.569558094193743
1276919.37111334,-7.8702745,3.4433947,4.213911,9.568449910056453
1276920.528335005,-7.8272023,3.4553592,4.2785196,9.56610333488689
1276921.68555667,-7.786523,3.4457877,4.2306614,9.507990806918686
1276922.842778335,-7.7721653,3.4553592,4.264162,9.514680142484703
1276924.0,-7.7458434,3.4577522,4.2019467,9.46628207500544
1276924.899448345,-7.7386646,3.4697168,4.22109,9.473302763640325
1276926.05667001,-7.755415,3.4864671,4.2569833,9.509144098081924
1276927.213891675,-7.7506294,3.5103962,4.23784,9.505494487017433
1276928.37111334,-7.7171288,3.512789,4.2474117,9.483368052733551
1276929.528335005,-7.7673798,3.5032175,4.242626,9.518644713699018
1276930.68555667,-7.7386646,3.4984317,4.2665553,9.504180568508584
1276931.842778335,-7.7673798,3.5223608,4.242626,9.525706794705611
1276933.0,-7.7817373,3.5008245,4.225876,9.522039463969236
1276933.899448345,-7.755415,3.565433,4.23784,9.529851109294102
1276935.05667001,-7.817631,3.5893621,4.245019,9.59265662094909
1276936.213891675,-7.822417,3.6085055,4.242626,9.602676451973963
1276937.37111334,-7.872668,3.618077,4.249805,9.65040025875497
1276938.528335005,-7.865489,3.6108983,4.271341,9.651365586296318
1276939.68555667,-7.8942037,3.6635423,4.326378,9.718926938704035
1276940.842778335,-7.853524,3.6348274,4.323985,9.674019626121904
1276942.0,-7.836774,3.6420062,4.2809124,9.64393316362096
1276943.899448345,-7.8487387,3.62047,4.271341,9.641309876778088
1276945.05667001,-7.853524,3.6563635,4.2545905,9.651340507173007
1276946.213891675,-7.8942037,3.670721,4.268948,9.696213783928172
1276947.37111334,-7.939669,3.7281508,4.2545905,9.748794414684921
1276948.528335005,-7.910954,3.7353296,4.2306614,9.717735142110127
1276949.68555667,-7.887025,3.6946502,4.23784,9.685808759034273
1276950.842778335,-7.9013824,3.7161863,4.2282686,9.701553473598103
1276952.0,-7.884632,3.7472942,4.1612673,9.670872821975632
1276952.899448345,-7.891811,3.7592585,4.245019,9.71765875300755
1276954.05667001,-7.8511314,3.7257578,4.249805,9.673798529137962
1276955.213891675,-7.8750606,3.7329366,4.2833056,9.7107209812806
1276956.37111334,-7.8702745,3.7401154,4.240233,9.69067901671273
1276957.528335005,-7.85831,3.7903664,4.2785196,9.717285807772308
1276958.68555667,-7.8463454,3.7927594,4.242626,9.692782643713079
1276959.842778335,-7.815238,3.7472942,4.264162,9.659360039890926
1276961.0,-7.836774,3.749687,4.2976627,9.692527225033535
1276961.899448345,-7.8702745,3.804724,4.2976627,9.740998414151269
1276963.05667001,-7.8559175,3.8166883,4.2785196,9.725650585629083
1276964.213891675,-7.8439527,3.8717253,4.2833056,9.739843819152785
1276965.37111334,-7.8463454,3.8286529,4.3335567,9.746970444035135
1276966.528335005,-7.810452,3.8286529,4.2785196,9.693682140475133
1276967.68555667,-7.808059,3.8454032,4.3168063,9.715334669982859
1276968.842778335,-7.817631,3.8071167,4.3168063,9.707950795677716
1276970.0,-7.84156,3.82626,4.345521,9.747506428961255
1276970.899448345,-7.8559175,3.8501892,4.3526998,9.771662713761815
1276972.05667001,-7.853524,3.8501892,4.331164,9.760162790100821
1276973.213891675,-7.860703,3.852582,4.3096275,9.757352556389938
1276974.37111334,-7.908561,3.8812969,4.2833056,9.795739358499794
1276975.528335005,-7.9444547,3.8597608,4.292877,9.820433129485568
1276976.68555667,-7.9444547,3.854975,4.3096275,9.825888352700398
1276977.842778335,-7.9133472,3.8597608,4.2809124,9.790047411398897
1276979.0,-7.9061685,3.8190813,4.3120203,9.78194261862203
1276979.899448345,-7.872668,3.8310459,4.292877,9.751133629648391
1276981.05667001,-7.889418,3.7951522,4.2856984,9.747476974871569
1276982.213891675,-7.9205256,3.8119025,4.3120203,9.790753061811625
1276983.37111334,-7.8630958,3.8406174,4.300056,9.750338413424243
1276984.528335005,-7.85831,3.8573678,4.3168063,9.760488667699816
1276985.68555667,-7.8439527,3.8406174,4.3168063,9.742317619783279
1276986.842778335,-7.829595,3.8286529,4.292877,9.715448205298221
1276988.0,-7.815238,3.8454032,4.314413,9.720042710903241
1276989.899448345,-7.860703,3.8382246,4.331164,9.761229498846452
1276991.05667001,-7.867882,3.8430104,4.314413,9.76147814805735
1276992.213891675,-7.8630958,3.8956544,4.3287706,9.784817508346354
1276993.37111334,-7.8248096,3.907619,4.347914,9.76736851341287
1276994.528335005,-7.84156,3.8980472,4.319199,9.76423653997735
1276995.68555667,-7.8774533,3.902833,4.323985,9.797102745189258
1276996.842778335,-7.903775,3.933941,4.319199,9.82858235167753
1276998.0,-7.9013824,3.9195836,4.3120203,9.817764434739244
1276998.899448345,-7.939669,3.933941,4.3335567,9.863769527577016
1277000.05667001,-7.968384,3.936334,4.3096275,9.877386198775882
1277001.213891675,-7.942062,3.9506912,4.3359494,9.873437444424399
1277002.37111334,-7.9372764,3.9746203,4.2833056,9.85619957398187
1277003.528335005,-7.9635983,3.955477,4.3622713,9.904246921199793
1277004.68555667,-7.965991,3.9506912,4.326378,9.888504445502486
1277005.842778335,-7.918133,3.9506912,4.3550925,9.862637671890957
1277007.0,-7.9635983,3.936334,4.3790216,9.904011985886601
1277007.899448345,-7.977956,3.9124048,4.395772,9.913501133957823
1277009.05667001,-7.9324903,3.874118,4.3622713,9.8469591007743
1277010.213891675,-7.965991,3.8860826,4.3622713,9.878666989068284
1277011.37111334,-7.9827414,3.8836899,4.345521,9.883863630184148
1277012.528335005,-7.9875274,3.8477962,4.381415,9.889536236078525
1277013.68555667,-7.9803486,3.8884757,4.3790216,9.898587637652101
1277014.842778335,-7.9635983,3.8932614,4.3598785,9.878508123560719
1277016.0,-7.9492407,3.8980472,4.314413,9.848825270789067
1277016.899448345,-7.9803486,3.929155,4.2737336,9.868587623126013
1277018.05667001,-7.9205256,3.9243693,4.326378,9.841389474150581
1277019.213891675,-7.8702745,3.9004402,4.249805,9.757842845483385
1277020.37111334,-7.9013824,3.9195836,4.3168063,9.81986741560895
1277021.528335005,-7.8822393,3.929155,4.292877,9.797793033822387
1277022.68555667,-7.8774533,3.9411197,4.2665553,9.787246247610565
1277023.842778335,-7.867882,3.9530842,4.2856984,9.792734686183232
1277025.0,-7.8439527,3.9602628,4.2833056,9.775376323594529
1277026.899448345,-7.853524,3.9626558,4.307235,9.794526714092655
1277028.05667001,-7.8774533,3.984192,4.3168063,9.82664098348284
1277029.213891675,-7.884632,3.988978,4.3120203,9.832237096791355
1277030.37111334,-7.910954,3.984192,4.338342,9.862970667701694
1277031.528335005,-7.91574,4.012907,4.2904844,9.857515849588697
1277032.68555667,-7.9324903,4.012907,4.3024487,9.87617789260475
1277033.842778335,-7.8822393,4.0057282,4.292877,9.828751076910471
1277035.0,-7.910954,4.0248713,4.314413,9.868988889762146
1277035.899448345,-7.8798466,4.010514,4.3168063,9.83925920054184
1277037.05667001,-7.91574,4.0224786,4.345521,9.885485653041988
1277038.213891675,-7.8942037,4.0679436,4.3168063,9.874281433177522
1277039.37111334,-7.910954,4.0464077,4.350307,9.893522095744483
1277040.528335005,-7.910954,4.0751224,4.3048415,9.885417346031478
1277041.68555667,-7.908561,4.082301,4.3120203,9.889592388614108
1277042.842778335,-7.8989897,4.1038375,4.321592,9.895032992445065
1277044.0,-7.91574,4.120588,4.347914,9.92685959227489
1277044.899448345,-7.903775,4.120588,4.345521,9.91627235798866
1277046.05667001,-7.887025,4.08948,4.2976627,9.869088848723386
1277047.213891675,-7.9013824,4.1229806,4.323985,9.905940598410185
1277048.37111334,-7.9061685,4.115802,4.3407354,9.91409654312532
1277049.528335005,-7.9133472,4.1229806,4.3407354,9.922802867564052
1277050.68555667,-7.9277043,4.115802,4.343128,9.932325125358437
1277051.842778335,-7.939669,4.1253734,4.350307,9.948980878122018
1277053.0,-7.9372764,4.0799084,4.326378,9.917840279076465
1277053.899448345,-7.9372764,4.0990515,4.307235,9.917401534417884
1277055.05667001,-7.977956,4.137338,4.3407354,9.980347262344791
1277056.213891675,-7.9803486,4.1732316,4.319199,9.987857916808865
1277057.37111334,-7.9755626,4.2569833,4.321592,10.020362419466755
1277058.528335005,-7.970777,4.1971607,4.343128,10.000610218868522
1277059.68555667,-7.817631,4.065551,4.2833056,9.797487751906269
1277060.842778335,-7.764987,4.0033355,4.2545905,9.717163092097378
1277062.0,-7.78413,3.9530842,4.2617693,9.715051832883454
1277063.899448345,-7.834381,3.9435124,4.268948,9.754626221891783
1277065.05667001,-7.8774533,4.008121,4.307235,9.832170553318678
1277066.213891675,-7.8822393,4.0416217,4.29527,9.844477981146353
1277067.37111334,-7.918133,4.051193,4.300056,9.879244734901246
1277068.528335005,-7.8822393,4.0440145,4.2617693,9.83089147662089
1277069.68555667,-7.8774533,4.08948,4.3168063,9.869799075756333
1277070.842778335,-7.889418,4.1014442,4.3024487,9.878047667457842
1277072.0,-7.908561,4.0966587,4.2569833,9.871669383214046
1277072.899448345,-7.9013824,4.1421237,4.292877,9.900395220104118
1277074.05667001,-7.891811,4.1229806,4.3024487,9.888918783356907
1277075.213891675,-7.8798466,4.1014442,4.2856984,9.863115012054141
1277076.37111334,-7.8319883,4.1301594,4.276127,9.832777813053351
1277077.528335005,-7.853524,4.1516957,4.2785196,9.860027706429564
1277078.68555667,-7.889418,4.1469097,4.276127,9.885597531702729
1277079.842778335,-7.865489,4.118195,4.3024487,9.86592682332875
1277081.0,-7.8750606,4.115802,4.323985,9.881965990484959
1277081.899448345,-7.8630958,4.1469097,4.268948,9.861493428818768
1277083.05667001,-7.85831,4.189982,4.2569833,9.870708790806408
1277084.213891675,-7.8487387,4.168446,4.2785196,9.863283996893625
1277085.37111334,-7.7984877,4.16366,4.288091,9.825487236108563
1277086.528335005,-7.7960944,4.1421237,4.3168063,9.827059238222427
1277087.68555667,-7.817631,4.1516957,4.3168063,9.84818502411887
1277088.842778335,-7.8511314,4.137338,4.347914,9.882418030912573
1277090.0,-7.8463454,4.118195,4.3407354,9.86745407929215
1277090.899448345,-7.8750606,4.113409,4.3359494,9.886211117223509
1277092.05667001,-7.872668,4.1110163,4.331164,9.881211365616348
1277093.213891675,-7.8630958,4.1062303,4.376629,9.891626976400634
1277094.37111334,-7.839167,4.1229806,4.3359494,9.861641115008482
1277095.528335005,-7.8487387,4.0918727,4.3598785,9.866846604090146
1277096.68555667,-7.8248096,4.115802,4.3670573,9.86096652671225
1277097.842778335,-7.8128448,4.0918727,4.331164,9.82562708720356
1277099.0,-7.84156,4.108623,4.300056,9.841815269190182
1277100.899448345,-7.84156,4.115802,4.3622713,9.872147701063215
1277102.05667001,-7.805666,4.1229806,4.3646646,9.847725006417752
1277103.213891675,-7.8200235,4.1014442,4.347914,9.842711426109265
1277104.37111334,-7.8319883,4.1277666,4.395772,9.884397265963992
1277105.528335005,-7.860703,4.1469097,4.4101295,9.921529817570137
1277106.68555667,-7.8750606,4.1253734,4.36945,9.905926430455656
1277107.842778335,-7.872668,4.1253734,4.405344,9.919912443463781
1277109.0,-7.8463454,4.118195,4.3598785,9.875890173998918
1277109.899448345,-7.853524,4.144517,4.381415,9.902103704975524
1277111.05667001,-7.84156,4.137338,4.36945,9.884316985120622
1277112.213891675,-7.8463454,4.113409,4.3359494,9.863352722920462
1277113.37111334,-7.815238,4.1516957,4.395772,9.881160542063189
1277114.528335005,-7.8439527,4.1469097,4.347914,9.88072923276351
1277115.68555667,-7.860703,4.1277666,4.3838077,9.901862385877914
1277116.842778335,-7.8559175,4.1516957,4.3885937,9.910185246295068
1277118.0,-7.8702745,4.1516957,4.338342,9.899444893513612
1277118.899448345,-7.8774533,4.1469097,4.3838077,9.92314972698761
1277120.05667001,-7.8798466,4.175625,4.393379,9.941308043602591
1277121.213891675,-7.834381,4.1469097,4.374236,9.884752212211042
1277122.37111334,-7.8200235,4.16366,4.398165,9.89104076947301
1277123.528335005,-7.817631,4.1564813,4.3622713,9.87021287228469
1277124.68555667,-7.803273,4.1516957,4.4149156,9.880239190072823
1277125.842778335,-7.753022,4.158874,4.374236,9.82545284778549
1277127.0,-7.7625937,4.16366,4.3790216,9.837161974886163
1277127.899448345,-7.741058,4.166053,4.3838077,9.823326651840112
1277129.05667001,-7.741058,4.158874,4.400558,9.827773024373528
1277130.213891675,-7.7625937,4.187589,4.3550925,9.836696257776639
1277131.37111334,-7.7195215,4.187589,4.3838077,9.815532780876572
1277132.528335005,-7.7960944,4.139731,4.3598785,9.845049577368039
1277133.68555667,-7.8272023,4.1469097,4.3670573,9.875887067325277
1277134.842778335,-7.8128448,4.1469097,4.347914,9.856051951985497
1277136.0,-7.791309,4.1229806,4.3598785,9.834226227630703
1277137.899448345,-7.7745585,4.132552,4.3359494,9.814387556133424
1277139.05667001,-7.7625937,4.1014442,4.323985,9.786549532762725
1277140.213891675,-7.702771,4.0727296,4.307235,9.71967493378159
1277141.37111334,-7.6931996,4.063158,4.29527,9.702778848933132
1277142.528335005,-7.7506294,4.0751224,4.357486,9.780928530120343
1277143.68555667,-7.7171288,4.03205,4.347914,9.732207368818518
1277144.842778335,-7.7386646,4.027264,4.3909864,9.76660364108087
1277146.0,-7.733879,4.012907,4.381415,9.752594751117007
1277146.899448345,-7.7267003,4.034443,4.4125223,9.769799429582287
1277148.05667001,-7.7721653,4.0224786,4.457988,9.82143291715247
1277149.213891675,-7.8319883,4.051193,4.477131,9.889231893617769
1277150.37111334,-7.815238,4.0775156,4.431666,9.866293224937284
1277151.528335005,-7.779344,4.108623,4.402951,9.837934414035601
1277152.68555667,-7.7960944,4.0918727,4.4220943,9.85278783313683
1277153.842778335,-7.834381,4.118195,4.3862004,9.878046854522717
1277155.0,-7.8439527,4.144517,4.407737,9.906198089292142
1277156.899448345,-7.85831,4.1349454,4.3622713,9.893443304122426
1277158.05667001,-7.872668,4.118195,4.381415,9.906322672842531
1277159.213891675,-7.8942037,4.132552,4.4125223,9.943178120590769
1277160.37111334,-7.9061685,4.113409,4.3838077,9.93203926201727
1277161.528335005,-7.8559175,4.082301,4.345521,9.862260084932268
1277162.68555667,-7.865489,4.1038375,4.326378,9.870407592111444
1277163.842778335,-7.84156,4.0918727,4.402951,9.880256218084948
1277165.0,-7.810452,4.087087,4.3598785,9.834428357796668
1277165.899448345,-7.815238,4.1014442,4.3862004,9.855888771253346
1277167.05667001,-7.7937016,4.087087,4.431666,9.853209036195647
1277168.213891675,-7.7195215,4.084694,4.469952,9.811024826433895
1277169.37111334,-7.731486,4.0775156,4.5417395,9.850350598953298
1277170.528335005,-7.7434506,4.1229806,4.55849,9.886345497842806
1277171.68555667,-7.7984877,4.216304,4.6542063,10.012755170802238
1277172.842778335,-7.808059,4.22109,4.6398487,10.015566988167604
1277174.0,-7.829595,4.245019,4.6398487,10.042456877342202
1277174.899448345,-7.805666,4.2785196,4.637456,10.036939265686335
1277176.05667001,-7.8487387,4.3048415,4.6661706,10.094924843172647
1277177.213891675,-7.84156,4.2785196,4.608741,10.05168079508423
1277178.37111334,-7.8630958,4.2785196,4.582419,10.056469033369655
1277179.528335005,-7.872668,4.3024487,4.4603806,10.019229578725703
1277180.68555667,-7.834381,4.323985,4.4867024,10.010238276861934
1277181.842778335,-7.7937016,4.3287706,4.4101295,9.94632001013627
1277183.0,-7.803273,4.3287706,4.3838077,9.94218760487513
1277183.899448345,-7.7745585,4.321592,4.3622713,9.907034277683202
1277185.05667001,-7.8702745,4.347914,4.42688,10.022117709902744
1277186.213891675,-7.7769513,4.288091,4.405344,9.913412717383892
1277187.37111334,-7.7506294,4.2785196,4.4460235,9.906821439103501
1277188.528335005,-7.757808,4.292877,4.544132,9.963007253606564
1277189.68555667,-7.803273,4.2785196,4.7499228,10.087545097102318
1277190.842778335,-7.853524,4.2976627,4.76428,10.141307007479229
1277192.0,-7.889418,4.347914,4.757101,10.1871135487105
1277192.899448345,-7.9564195,4.350307,4.7092433,10.217962356205083
1277194.05667001,-7.9300976,4.3526998,4.6470275,10.16992173422205
1277195.213891675,-7.91574,4.331164,4.6278844,10.140770945162867
1277196.37111334,-7.9492407,4.376629,4.625491,10.185306873200163
1277197.528335005,-7.977956,4.3790216,4.6757426,10.231626506702506
1277198.68555667,-7.9540267,4.374236,4.663778,10.205454745443385
1277199.842778335,-7.922919,4.3407354,4.630277,10.151556254589893
1277201.0,-7.9755626,4.357486,4.716422,10.23923432238948
1277201.899448345,-7.985134,4.3838077,4.7236004,10.261215117490494
1277203.05667001,-8.078458,4.405344,4.769066,10.36400163684163
1277204.213891675,-8.150245,4.393379,4.7786374,10.419388081761076
1277205.37111334,-8.193317,4.400558,4.7403507,10.438691437763811
1277206.528335005,-8.198103,4.3670573,4.7499228,10.432729693903324
1277207.68555667,-8.293819,4.402951,4.769066,10.531733077965752
1277208.842778335,-8.269891,4.350307,4.716422,10.467134499384919
1277210.0,-8.190925,4.240233,4.57524,10.295807365501455
1277210.899448345,-8.217246,4.2234826,4.611134,10.325865283983456
1277212.05667001,-8.279462,4.2067323,4.6589923,10.390009475682234
1277213.213891675,-8.356035,4.225876,4.611134,10.437619731268093
1277214.37111334,-8.377571,4.2545905,4.560883,10.444466952526597
1277215.528335005,-8.372786,4.22109,4.563276,10.428069526142986
1277216.68555667,-8.339285,4.2115183,4.50106,10.370154378120892
1277217.842778335,-8.293819,4.170839,4.4412374,10.291157428192456
1277219.0,-8.279462,4.1564813,4.4867024,10.293508936842647
1277220.899448345,-8.286641,4.1493025,4.481917,10.294304750408172
1277222.05667001,-8.1622095,4.139731,4.4460235,10.174780667749232
1277223.213891675,-8.114351,4.1516957,4.431666,10.135034922098466
1277224.37111334,-8.071279,4.144517,4.469952,10.1144963661783
1277225.528335005,-8.054528,4.118195,4.4603806,10.086126434745172
1277226.68555667,-8.078458,4.240233,4.474738,10.16190630347953
1277227.842778335,-7.887025,4.1516957,4.402951,9.941213107283462
1277229.0,-7.733879,4.036836,4.3168063,9.73363991060162
1277229.899448345,-7.681235,3.9961565,4.3335567,9.682476520489587
1277231.05667001,-7.7219143,4.010514,4.3407354,9.723896688753621
1277232.213891675,-7.7769513,4.0296574,4.4101295,9.806546409960884
1277233.37111334,-7.731486,4.020086,4.393379,9.759034084028656
1277234.528335005,-7.697985,4.020086,4.3909864,9.73143494416964
1277235.68555667,-7.7434506,3.9961565,4.407737,9.7651645878757
1277236.842778335,-7.7434506,4.012907,4.4388447,9.786101984754064
1277238.0,-7.760201,4.027264,4.402951,9.789052681158582
1277239.899448345,-7.7984877,4.084694,4.3622713,9.824995998751906
1277241.05667001,-7.8487387,4.1229806,4.3526998,9.876622082360653
1277242.213891675,-7.8750606,4.0918727,4.36945,9.892021782688191
1277243.37111334,-7.891811,4.1014442,4.3287706,9.891449857976282
1277244.528335005,-7.834381,4.087087,4.3048415,9.829214929934754
1277245.68555667,-7.779344,4.0751224,4.2856984,9.772002170542141
1277246.842778335,-7.803273,4.1253734,4.3024487,9.819411388575602
1277248.0,-7.815238,4.1851964,4.2521977,9.832344541517157
1277248.899448345,-7.686021,4.1995535,4.189982,9.709125479265744
1277250.05667001,-7.597483,4.1732316,4.2306614,9.645522578065822
1277251.213891675,-7.592697,4.175625,4.3048415,9.675564697450804
1277252.37111334,-7.547232,4.2067323,4.264162,9.635371558374452
1277253.528335005,-7.549625,4.192375,4.323985,9.657623520384039
1277254.68555667,-7.499374,4.192375,4.2856984,9.601241029589017
1277255.842778335,-7.4371586,4.225876,4.2809124,9.565331514662924
1277257.0,-7.44673,4.2091255,4.321592,9.583667491212028
1277257.899448345,-7.4826236,4.23784,4.393379,9.656641385208315
1277259.05667001,-7.4563017,4.23784,4.3622713,9.622116908551183
1277260.213891675,-7.3222985,4.1421237,4.323985,9.458863057969966
1277261.37111334,-7.16676,3.986585,4.2617693,9.242185154293734
1277262.528335005,-7.0973654,3.9746203,4.2474117,9.176639270429352
1277263.68555667,-7.10933,3.9698346,4.2521977,9.186040772832573
1277264.842778335,-7.1404376,3.8980472,4.23784,9.17278087378749
1277266.0,-7.1212945,3.9674416,4.2569833,9.19648492749375
1277266.899448345,-7.1189017,4.008121,4.288091,9.226674362368323
1277268.05667001,-7.1021514,4.008121,4.29527,9.217100022895648
1277269.213891675,-7.099758,3.984192,4.3120203,9.2127014832263
1277270.37111334,-7.1141157,3.95787,4.3168063,9.214672743055294
1277271.528335005,-7.157188,3.988978,4.3096275,9.25797897710857
1277272.68555667,-7.1452236,3.9937637,4.2809124,9.237455264406341
1277273.842778335,-7.185903,3.979406,4.3024487,9.272752496124152
1277275.0,-7.188296,4.020086,4.2737336,9.278873299856022
1277276.899448345,-7.1715455,4.0799084,4.292877,9.30083385230001
1277278.05667001,-7.243333,4.0727296,4.2785196,9.346589180614997
1277279.213891675,-7.193082,4.0990515,4.3024487,9.330258124752389
1277280.37111334,-7.209832,4.113409,4.3287706,9.361627314571402
1277281.528335005,-7.2241898,4.115802,4.2976627,9.359414995212004
1277282.68555667,-7.2002606,4.0918727,4.3287706,9.344807638915956
1277283.842778335,-7.207439,4.113409,4.350307,9.369764219779013
1277285.0,-7.188296,4.1349454,4.3526998,9.365648316775363
1277285.899448345,-7.16676,4.108623,4.3862004,9.353180518021084
1277287.05667001,-7.2265825,4.0535865,4.42688,9.394270843268703
1277288.213891675,-7.1643667,4.094266,4.405344,9.354048324076635
1277289.37111334,-7.1739383,4.08948,4.4412374,9.376237360784211
1277290.528335005,-7.161974,4.0918727,4.508239,9.400080459804707
1277291.68555667,-7.188296,4.0799084,4.462774,9.393274387085823
1277292.842778335,-7.205046,4.065551,4.5393467,9.43647504413157
1277294.0,-7.2457256,4.034443,4.5225964,9.446224006873717
1277294.899448345,-7.2481184,4.0464077,4.4914885,9.438331661934226
1277296.05667001,-7.2337613,4.082301,4.4412374,9.418974129019437
1277297.213891675,-7.2720475,4.0440145,4.4890957,9.454560186609687
1277298.37111334,-7.3031554,4.0607653,4.5178103,9.499289632652504
1277299.528335005,-7.324692,4.0464077,4.5704546,9.534861478812603
1277300.68555667,-7.317513,4.0607653,4.580026,9.540044522303294
1277301.842778335,-7.3199058,4.027264,4.608741,9.541507734716282
1277303.0,-7.3199058,4.0416217,4.608741,9.547576681643648
1277303.899448345,-7.3342633,4.0224786,4.606348,9.549355692311856
1277305.05667001,-7.3318706,4.036836,4.582419,9.542061374650729
1277306.213891675,-7.3222985,4.0176926,4.5943837,9.532380119048058
1277307.37111334,-7.31512,3.9961565,4.606348,9.523585946690263
1277308.528335005,-7.324692,4.039229,4.5680614,9.530669901086439
1277309.68555667,-7.324692,4.027264,4.5417395,9.513010349327926
1277310.842778335,-7.3510137,4.0464077,4.5537043,9.547095922009241
1277312.0,-7.3845143,4.0775156,4.5154176,9.567976850804856
1277313.899448345,-7.370157,4.0918727,4.524989,9.56755777864839
1277315.05667001,-7.374943,4.08948,4.5537043,9.583832937582306
1277316.213891675,-7.3222985,4.1301594,4.5345607,9.55178060544185
1277317.37111334,-7.291191,4.132552,4.5656686,9.543834763668688
1277318.528335005,-7.3199058,4.132552,4.5489182,9.557806429504046
1277319.68555667,-7.317513,4.1038375,4.5225964,9.531073230694863
1277320.842778335,-7.3342633,4.1349454,4.563276,9.576673716217131
1277322.0,-7.317513,4.132552,4.613527,9.586898034171533
1277322.899448345,-7.3342633,4.137338,4.5776334,9.584555880413367
1277324.05667001,-7.348621,4.0990515,4.529775,9.556323317673918
1277325.213891675,-7.3007627,4.0488005,4.527382,9.49689998180646
1277326.37111334,-7.286405,4.03205,4.4867024,9.45936696891979
1277327.528335005,-7.3462276,4.034443,4.4651666,9.496394212384315
1277328.68555667,-7.3222985,4.03205,4.532168,9.508629202247096
1277329.842778335,-7.305548,4.0416217,4.479524,9.474801993328985
1277331.0,-7.324692,4.020086,4.4914885,9.486077866425736
1277331.899448345,-7.3318706,4.008121,4.493881,9.48769344403298
1277333.05667001,-7.3318706,4.0224786,4.448416,9.472331576315216
1277334.213891675,-7.3222985,4.082301,4.450809,9.491624599202407
1277335.37111334,-7.370157,4.027264,4.4292727,9.495079050819445
1277336.528335005,-7.362978,4.039229,4.4460235,9.502417634764178
1277337.68555667,-7.3270845,4.0966587,4.450809,9.501498856964986
1277338.842778335,-7.2768335,4.1038375,4.3838077,9.434593683021426
1277340.0,-7.2194037,4.120588,4.36945,9.391013180260034
1277340.899448345,-7.2194037,4.1349454,4.343128,9.385111830390667
1277342.05667001,-7.2648687,4.1971607,4.3096275,9.432251287928054
1277343.213891675,-7.3294773,4.2019467,4.3407354,9.49839867418026
1277344.37111334,-7.3294773,4.187589,4.448416,9.541778871530836
1277345.528335005,-7.396479,4.168446,4.5489182,9.632055878297646
1277346.68555667,-7.453909,4.1493025,4.613527,9.69856185197147
1277347.842778335,-7.530482,4.1564813,4.6422415,9.774195726191284
1277349.0,-7.4945884,4.166053,4.6972785,9.776976945395024
1277350.899448345,-7.5017667,4.139731,4.6446347,9.746102188569232
1277352.05667001,-7.4898024,4.1732316,4.580026,9.720578179252525
1277353.213891675,-7.42998,4.1516957,4.560883,9.656232895155723
1277354.37111334,-7.4084435,4.175625,4.5895977,9.663606277221902
1277355.528335005,-7.370157,4.2306614,4.5919905,9.659404062269536
1277356.68555667,-7.3581924,4.189982,4.5895977,9.63137329790446
1277357.842778335,-7.4084435,4.2282686,4.611134,9.69669259141457
1277359.0,-7.418015,4.2354474,4.6518135,9.726527132392835
1277359.899448345,-7.4323726,4.2306614,4.637456,9.728548529899859
1277361.05667001,-7.480231,4.194768,4.5728474,9.719098092460625
1277362.213891675,-7.4850163,4.144517,4.611134,9.719313089951918
1277363.37111334,-7.5376606,4.1564813,4.5967765,9.758228236160205
1277364.528335005,-7.575947,4.166053,4.5417395,9.766184937398956
1277365.68555667,-7.5687685,4.0966587,4.5489182,9.734553194737249
1277366.842778335,-7.57834,4.1062303,4.5417395,9.74267735882177
1277368.0,-7.5568037,4.0990515,4.4986672,9.70286101808852
1277368.899448345,-7.5831256,4.1277666,4.477131,9.725582396988466
1277370.05667001,-7.628591,4.0751224,4.493881,9.746639916526298
1277371.213891675,-7.5903044,4.0679436,4.479524,9.707060383247665
1277372.37111334,-7.6070547,4.08948,4.4675593,9.723693432960985
1277373.528335005,-7.6261983,4.070337,4.4651666,9.729555825948452
1277374.68555667,-7.650127,4.0751224,4.4914885,9.762404142256303
1277375.842778335,-7.659699,4.087087,4.4890957,9.77380422967068
1277377.0,-7.6118407,4.0799084,4.448416,9.7146372193522
1277377.899448345,-7.6764493,4.0440145,4.453202,9.752586076753424
1277379.05667001,-7.702771,4.0416217,4.513025,9.799733756331184
1277380.213891675,-7.741058,4.0535865,4.532168,9.843581119316804
1277381.37111334,-7.805666,4.0679436,4.4890957,9.880716929458886
1277382.528335005,-7.808059,4.03205,4.4890957,9.86788694471818
1277383.68555667,-7.817631,4.082301,4.4388447,9.873392435099504
1277384.842778335,-7.8487387,4.0751224,4.4340587,9.892936788987644
1277386.0,-7.910954,4.0176926,4.4890957,9.943692836264063
1277387.899448345,-7.91574,4.070337,4.4603806,9.95598202780747
1277389.05667001,-8.04735,4.0727296,4.477131,10.069343097162651
1277390.213891675,-8.099994,4.1253734,4.4125223,10.104403076751286
1277391.37111334,-8.145459,4.16366,4.405344,10.153404486900785
1277392.528335005,-8.169388,4.132552,4.393379,10.154736105132866
1277393.68555667,-8.207675,4.1612673,4.4173083,10.207579882857797
1277394.842778335,-8.222033,4.1732316,4.477131,10.249994664949272
1277396.0,-8.1526375,4.192375,4.5106316,10.217010510807446
1277396.899448345,-8.1622095,4.216304,4.5178103,10.237650768076255
1277398.05667001,-8.068886,4.194768,4.493881,10.143863479807928
1277399.213891675,-8.0617075,4.1732316,4.5680614,10.162390208851694
1277400.37111334,-8.035385,4.1229806,4.580026,10.12635271392802
1277401.528335005,-7.992313,4.1253734,4.527382,10.06940715997325
1277402.68555667,-7.9277043,4.1851964,4.4890957,10.025783988226054
1277403.842778335,-7.8774533,4.1995535,4.4460235,9.972845384121594
1277405.0,-7.810452,4.2354474,4.326378,9.882293343215165
1277405.899448345,-7.7721653,4.22109,4.29527,9.832268233298159
1277407.05667001,-7.6955924,4.1851964,4.350307,9.780755711485678
1277408.213891675,-7.678842,4.168446,4.4149156,9.789383855534698
1277409.37111334,-7.585519,4.1732316,4.457988,9.738049984198252
1277410.528335005,-7.623805,4.16366,4.371843,9.72478680950251
1277411.68555667,-7.5568037,4.1540885,4.326378,9.6477603631646
1277412.842778335,-7.597483,4.189982,4.347914,9.704743852725274
1277414.0,-7.597483,4.2067323,4.424487,9.746508594995507
1277414.899448345,-7.6214123,4.213911,4.453202,9.781307653648172
1277416.05667001,-7.65252,4.2330546,4.4173083,9.797572465372738
1277417.213891675,-7.647734,4.2306614,4.424487,9.796040854823696
1277418.37111334,-7.6429486,4.22109,4.4460235,9.797927793819172
1277419.528335005,-7.623805,4.2330546,4.419701,9.776242164247321
1277420.68555667,-7.602269,4.276127,4.455595,9.794492476515309
1277421.842778335,-7.63577,4.249805,4.400558,9.784208539390859
1277423.0,-7.6453414,4.218697,4.4101295,9.782529923651305
1277423.899448345,-7.65252,4.2019467,4.393379,9.773392320872107
1277425.05667001,-7.6453414,4.2091255,4.450809,9.796820063254465
1277426.213891675,-7.683628,4.1804104,4.4675593,9.822069866063297
1277427.37111334,-7.6931996,4.216304,4.4460235,9.835124018964295
1277428.528335005,-7.729093,4.2091255,4.431666,9.853693704035823
1277429.68555667,-7.6908064,4.175625,4.3885937,9.790000096352689
1277430.842778335,-7.705164,4.189982,4.402951,9.813841191685395
1277432.0,-7.7219143,4.1971607,4.323985,9.7949458741942
1277433.899448345,-7.7697725,4.182803,4.2569833,9.797301284284574
1277435.05667001,-7.7506294,4.242626,4.189982,9.77896112234548
1277436.213891675,-7.6955924,4.2665553,4.1612673,9.733539030432103
1277437.37111334,-7.705164,4.343128,4.2306614,9.804632016181431
1277438.528335005,-7.6716633,4.3838077,4.2593765,9.80889779271343
1277439.68555667,-7.654913,4.4149156,4.319199,9.835885968955383
1277440.842778335,-7.6261983,4.450809,4.453202,9.889368499464862
1277442.0,-7.650127,4.493881,4.5106316,9.953150606175342
1277442.899448345,-7.650127,4.5417395,4.5991693,10.015198403029855
1277444.05667001,-7.659699,4.587205,4.7403507,10.108628158242665
1277445.213891675,-7.764987,4.606348,4.7451367,10.19949936560417
1277446.37111334,-7.8272023,4.5848117,4.730779,10.230633612656803
1277447.528335005,-7.942062,4.5656686,4.773852,10.330118174288906
1277448.68555667,-7.97317,4.5178103,4.816924,10.353009542034727
1277449.842778335,-8.0641,4.5225964,4.8528175,10.441907138813255
1277451.0,-8.147852,4.4890957,4.824103,10.479095484452438
1277451.899448345,-8.214853,4.5034533,4.8528175,10.550580037381648
1277453.05667001,-8.336892,4.493881,4.843246,10.637469928434157
1277454.213891675,-8.365606,4.5225964,4.8217096,10.662369596448114
1277455.37111334,-8.461323,4.6207056,4.898283,10.813791356424876
1277456.528335005,-8.509181,4.611134,4.891104,10.843966820104761
1277457.68555667,-8.317748,4.481917,4.848032,10.619601031084784
1277458.842778335,-8.19571,4.4101295,4.70685,10.42944588812705
1277460.0,-8.104779,4.300056,4.7594943,10.335894263860746
1277460.899448345,-8.126316,4.3168063,4.8599963,10.406315025002336
1277462.05667001,-8.219639,4.381415,4.9150333,10.531705229100124
1277463.213891675,-8.291427,4.3646646,4.941355,10.593160435056536
1277464.37111334,-8.334499,4.319199,4.974856,10.623960928172599
1277465.528335005,-8.317748,4.2856984,4.9628916,10.591621009109847
1277466.68555667,-8.186138,4.1110163,4.941355,10.408184260952277
1277467.842778335,-7.9277043,3.8932614,4.898283,10.099463161230773
1277469.0,-7.896597,3.7831876,4.862389,10.015566852880758
1277470.899448345,-7.939669,3.749687,4.8599963,10.035838802190064
1277472.05667001,-7.918133,3.7807949,4.814531,10.008543801748385
1277473.213891675,-7.853524,3.776009,4.7786374,9.938383097231448
1277474.37111334,-7.805666,3.7018287,4.7786374,9.87255452395065
1277475.528335005,-7.805666,3.7664373,4.788209,9.90158659337322
1277476.68555667,-7.8008804,3.7449012,4.7786374,9.885008619801216
1277477.842778335,-7.9803486,3.929155,4.814531,10.114540599627249
1277479.0,-8.171782,4.1277666,4.7403507,10.309578212448367
1277479.899448345,-7.9492407,4.0176926,4.730779,10.085264075941305
1277481.05667001,-7.6333766,3.802331,4.6781354,9.726824259321319
1277482.213891675,-7.580733,3.7425082,4.6470275,9.647214366339773
1277483.37111334,-7.604662,3.7329366,4.6518135,9.66462977214574
1277484.528335005,-7.659699,3.7257578,4.5704546,9.666504808125996
1277485.68555667,-7.65252,3.6731138,4.431666,9.575619607822066
1277486.842778335,-7.681235,3.776009,4.4125223,9.629640083684503
1277488.0,-7.647734,3.8166883,4.4675593,9.644378207698482
1277489.899448345,-7.6118407,3.874118,4.4603806,9.635554172799655
1277491.05667001,-7.518517,3.9435124,4.455595,9.588102770218295
1277492.213891675,-7.4084435,3.929155,4.469952,9.502829314947274
1277493.37111334,-7.29837,4.0057282,4.5345607,9.480205894977162
1277494.528335005,-7.2505116,4.034443,4.532168,9.454480184664178
1277495.68555667,-7.1954746,4.0488005,4.556097,9.430040301157488
1277496.842778335,-7.1763315,4.1540885,4.5776334,9.471584482467549
1277498.0,-7.1715455,4.1612673,4.455595,9.412732717157358
1277498.899448345,-7.142831,4.158874,4.398165,9.362698489733715
1277500.05667001,-7.130866,4.120588,4.606348,9.43646847463626
1277501.213891675,-7.2146177,4.2091255,4.742744,9.60526244729625
1277502.37111334,-7.3079414,4.3550925,4.682921,9.71095192458655
1277503.528335005,-7.585519,4.6422415,4.6542063,10.0375365965282
1277504.68555667,-7.374943,4.400558,4.7475295,9.812936936411202
1277505.842778335,-7.2265825,4.242626,4.8001738,9.657382591333363
1277507.0,-7.135652,4.0416217,4.8001738,9.502310452791011
1277507.899448345,-7.142831,3.9387267,4.836067,9.482676138113275
1277509.05667001,-7.3318706,3.9722273,4.929391,9.686785423910797
1277510.213891675,-7.5065527,3.9985495,5.1471453,9.941319644852973
1277511.37111334,-7.6190195,3.988978,5.4271154,10.169315866408192
1277512.528335005,-7.78413,3.9722273,5.771694,10.472999628062693
1277513.68555667,-7.9492407,4.070337,5.6257267,10.554945376608938
1277514.842778335,-8.097601,4.2067323,4.5465255,10.195029804822276
1277516.0,-8.126316,4.170839,3.9530842,9.952878196183587
1277516.899448345,-8.166995,3.979406,4.350307,10.072767764478144
1277518.05667001,-8.0641,3.8430104,4.692493,10.090487019938987
1277519.213891675,-7.97317,3.7951522,4.4651666,9.895066085470091
1277520.37111334,-7.8248096,3.7592585,4.120588,9.609313982372436
1277521.528335005,-7.604662,3.6922572,4.084694,9.388736466576951
1277522.68555667,-7.425194,3.720972,4.2354474,9.322990573876323
1277523.842778335,-7.3007627,3.8717253,4.22109,9.279493175193965
1277525.0,-7.087794,4.03205,4.331164,9.233267708879236
1277526.899448345,-6.898754,4.166053,4.44363,9.20296973417956
1277528.05667001,-6.7312503,4.276127,4.5967765,9.204637250447806
1277529.213891675,-6.6762137,4.371843,4.761887,9.293030097093505
1277530.37111334,-6.7240715,4.453202,4.769066,9.369532331032977
1277531.528335005,-6.7288575,4.529775,4.6900997,9.3698142992202
1277532.68555667,-6.4967456,4.5465255,4.020086,8.890426815438369
1277533.842778335,-5.6185484,4.582419,2.6513422,7.719861752402331
1277535.0,-5.5515466,5.6951213,-0.4402951,7.96542127252346
1277535.899448345,-6.463245,6.8221807,-2.5173392,9.728960997009604
1277537.05667001,-6.374707,6.9729342,-2.4599094,9.762676628342609
1277538.213891675,-5.958341,6.4967456,-0.16032484,8.816758753517155
1277539.37111334,-5.592226,5.1471453,4.474738,8.819828600547297
1277540.528335005,-5.5898333,3.723365,8.506788,10.838594250268708
1277541.68555667,-6.2095966,2.8092742,9.444808,11.647124521631131
1277542.842778335,-7.1189017,2.2110472,7.9133472,10.871455976208457
1277544.0,-7.193082,1.3663505,6.0827723,9.518795154914384
1277544.899448345,-6.8652534,0.42115182,5.3194346,8.695139881875278
1277546.05667001,-6.78868,-0.071787246,5.441473,8.700629745071174
1277547.213891675,-7.075829,0.031107806,5.7310147,9.105649522381762
1277548.37111334,-7.150009,0.30868515,5.6951213,9.146164324110146
1277549.528335005,-6.8293595,0.45225963,5.721443,8.920739877129977
1277550.68555667,-7.0949726,1.0720228,5.7118716,9.171332850428948
1277551.842778335,-8.090423,2.2589052,5.568297,10.077873213219396
1277553.0,-9.109801,3.6108983,5.314649,11.14776007930494
1277553.899448345,-9.60274,4.6278844,5.367293,11.934729308836978
1277555.05667001,-9.6410265,5.5802617,5.154324,12.274191155068637
1277556.213891675,-9.571632,6.374707,4.7977805,12.460807606469704
1277557.37111334,-9.315591,6.84611,4.661385,12.465069912744413
1277558.528335005,-8.844189,6.8532887,5.125609,12.306872579747857
1277559.68555667,-8.511574,6.8054304,5.386436,12.15625220488684
1277560.842778335,-8.425429,6.6714277,5.49651,12.070933003312888
1277562.0,-8.315355,6.3603497,5.4031863,11.78106953017521
1277563.899448345,-8.025814,5.9487696,5.230897,11.27669426476967
1277565.05667001,-7.753022,5.518046,5.2261114,10.856814549204106
1277566.213891675,-7.4563017,5.209361,5.0322857,10.395084243822577
1277567.37111334,-7.609448,5.1638956,4.685314,10.320934255725078
1277568.528335005,-7.7960944,5.1136446,4.824103,10.497638722276049
1277569.68555667,-7.8702745,4.998785,5.106466,10.630384150666016
1277570.842778335,-8.133494,4.9628916,5.3816504,10.942859713493851
1277572.0,-8.411072,5.0083566,5.398401,11.17911004412912
1277572.899448345,-8.698221,5.0968943,5.23329,11.35890418545352
1277574.05667001,-8.485252,4.943748,5.161503,11.09419934064721
1277575.213891675,-8.076065,4.714029,4.9461412,10.57871485897051
1277576.37111334,-7.547232,4.4675593,4.5919905,9.899806751292205
1277577.528335005,-7.444337,4.395772,4.3335567,9.670609004487147
1277578.68555667,-7.4706593,4.1732316,4.50106,9.66882379028158
1277579.842778335,-7.6668777,4.132552,4.6159196,9.857267037730358
1277581.0,-8.085636,4.2115183,4.714029,10.26335546147418
1277581.899448345,-8.277069,4.2234826,4.869568,10.490966066568308
1277583.05667001,-8.205282,4.2617693,4.7762446,10.406817128448816
1277584.213891675,-8.207675,4.4723454,4.5943837,10.415189094075625
1277585.37111334,-7.98992,4.448416,4.400558,10.148504186668102
1277586.528335005,-7.7506294,4.42688,4.2306614,9.877652479814945
1277587.68555667,-7.4371586,4.0990515,4.57524,9.646054753048325
1277588.842778335,-7.16676,3.8980472,4.716422,9.423473741307493
1277590.0,-7.1835103,3.8477962,4.785816,9.450523298357426
1277590.899448345,-7.1787243,3.7616515,4.788209,9.413344252206214
1277592.05667001,-7.0279713,3.82626,4.63267,9.246311562462282
1277593.213891675,-6.870039,3.7449012,4.635063,9.094258071621425
1277594.37111334,-6.767144,3.7161863,4.582419,8.977908577425184
1277595.528335005,-6.872432,3.9530842,4.347914,9.042209488742763
1277596.68555667,-6.982506,4.027264,4.5154176,9.239222990496645
1277597.842778335,-6.7097144,3.9746203,4.5991693,9.053741332112484
1277599.0,-6.8341455,4.020086,4.5465255,9.139886776361976
1277600.899448345,-7.181117,4.1110163,4.5106316,9.424154806531632
1277602.05667001,-7.391693,4.1038375,4.398165,9.530082003838174
1277603.213891675,-7.293584,4.0248713,4.3287706,9.387982288758542
1277604.37111334,-6.8891826,3.9100118,4.393379,9.058190117784182
1277605.528335005,-6.738429,3.9243693,4.5034533,9.004898190213169
1277606.68555667,-7.056686,4.1971607,4.3862004,9.308691056919907
1277607.842778335,-7.2026534,4.319199,4.4173083,9.489273345171455
1277609.0,-6.8867893,4.175625,4.582419,9.266189880138464
1277609.899448345,-7.1715455,4.474738,4.5417395,9.595923234013208
1277611.05667001,-7.6261983,4.556097,4.8767467,10.13408006482546
1277612.213891675,-7.496981,4.398165,4.816924,9.937370693667516
1277613.37111334,-7.362978,4.2737336,4.5704546,9.66267556957772
1277614.528335005,-6.8389316,3.984192,4.326378,9.02010631429733
1277615.68555667,-6.164131,3.7951522,4.039229,8.289454874765099
1277616.842778335,-6.0492716,3.7951522,3.876511,8.12552796099136
1277618.0,-6.4967456,3.8908687,4.139731,8.63040760243223
1277618.899448345,-7.138045,4.1612673,4.331164,9.3288162999906
1277620.05667001,-7.810452,4.4173083,4.5106316,10.042986134236742
1277621.213891675,-8.176567,4.4388447,4.5895977,10.374198630451048
1277622.37111334,-8.107173,4.3335567,4.563276,10.263013961610882
1277623.528335005,-7.6764493,4.087087,4.544132,9.812302973026439
1277624.68555667,-6.7599654,3.7592585,4.582419,8.99042382597063
1277625.842778335,-6.0540576,3.8430104,4.245019,8.333098383493796
1277627.0,-6.544604,4.357486,4.132552,8.882427133937885
1277627.899448345,-6.99447,4.582419,4.3096275,9.407128342975726
1277629.05667001,-7.5089455,4.6230984,4.5345607,9.915621114183281
1277630.213891675,-7.942062,4.5106316,4.714029,10.278337202855505
1277631.37111334,-8.159817,4.3120203,4.8336744,10.418279164349382
1277632.528335005,-7.884632,3.95787,4.9269977,10.104823751462927
1277633.68555667,-7.1524024,3.6778998,4.773852,9.352725268512371
1277634.842778335,-6.6857853,3.799938,4.292877,8.807272382450147
1277636.0,-6.982506,4.2617693,3.9770133,9.09586182804221
1277636.899448345,-7.6620917,4.5537043,4.189982,9.848848726189848
1277638.05667001,-7.9994917,4.551311,4.469952,10.231655299089875
1277639.213891675,-7.9994917,4.338342,4.6733494,10.230018249339208
1277640.37111334,-7.7937016,4.118195,4.8839254,10.077402542353497
1277641.528335005,-7.453909,3.9626558,5.0849295,9.854943347859738
1277642.68555667,-7.267262,3.986585,4.9892135,9.674616699769105
1277643.842778335,-7.2337613,4.170839,4.6709566,9.567707984067148
1277645.0,-7.2720475,4.4460235,4.1564813,9.48293923855142
1277646.899448345,-7.317513,4.5991693,3.9650488,9.508941410147237
1277648.05667001,-7.4874096,4.4340587,4.4914885,9.792632333486747
1277649.213891675,-7.420408,4.168446,5.022714,9.882613665785788
1277650.37111334,-7.4706593,4.1253734,5.1758604,9.980931166298674
1277651.528335005,-7.683628,4.1277666,5.0442505,10.075765948711284
1277652.68555667,-7.7123427,4.120588,4.8217096,9.985407295384572
1277653.842778335,-7.5209103,4.1062303,4.661385,9.754677295303479
1277655.0,-7.3581924,4.1229806,4.582419,9.59898579616384
1277655.899448345,-7.5591965,4.36945,4.450809,9.80016559975357
1277657.05667001,-7.910954,4.407737,4.76428,10.232775897560007
1277658.213891675,-7.686021,4.22109,5.209361,10.199507911113262
1277659.37111334,-7.887025,4.144517,5.2261114,10.329299341152039
1277660.528335005,-8.238783,4.175625,5.130395,10.565715419115689
1277661.68555667,-8.155031,4.0559793,5.001178,10.390730488308966
1277662.842778335,-7.5615897,3.7784019,4.993999,9.818043884658017
1277664.0,-7.1404376,3.720972,4.922212,9.437142190155967
1277664.899448345,-7.1978674,4.0248713,4.582419,9.434375866007642
1277666.05667001,-7.396479,4.393379,4.307235,9.620912325777999
1277667.213891675,-7.5137315,4.376629,4.529775,9.804585866234138
1277668.37111334,-7.5376606,4.1971607,4.919819,9.931621431326198
1277669.528335005,-7.829595,4.113409,5.185432,10.252384917273151
1277670.68555667,-8.200496,4.144517,5.156717,10.536455097773349
1277671.842778335,-8.171782,3.9195836,5.1184306,10.408625675848342
1277673.0,-7.597483,3.6276486,4.948534,9.765734537121464
1277673.899448345,-6.769537,3.4003224,4.6015625,8.863588497878103
1277675.05667001,-6.3364205,3.852582,3.8669395,8.363362596241089
1277676.213891675,-6.8054304,4.505846,3.646792,8.93955384771657
1277677.37111334,-7.678842,4.685314,4.371843,10.001489536874445
1277678.528335005,-8.181353,4.5417395,4.893497,10.559746563506069
1277679.68555667,-8.233996,4.268948,5.075358,10.572694357772951
1277680.842778335,-8.037778,3.8980472,5.185432,10.32905378906199
1277682.0,-7.4778376,3.720972,5.0968943,9.784785092281293
1277683.899448345,-7.1739383,3.699436,4.950927,9.469049350892194
1277685.05667001,-7.030364,4.1612673,4.225876,9.197836239133707
1277686.213891675,-7.0160065,4.663778,3.6228628,9.170621969580367
1277687.37111334,-7.4826236,5.003571,3.7281508,9.742919843602255
1277688.528335005,-7.961205,4.7020645,4.450809,10.261573776408092
1277689.68555667,-8.009064,4.1229806,5.111252,10.35707353413967
1277690.842778335,-7.6692705,3.7640445,5.15911,9.980088025275654
1277692.0,-7.2768335,3.5582542,5.0586076,9.550025632914169
1277692.899448345,-6.9131117,3.644399,4.6230984,9.079966754562511
1277694.05667001,-6.795859,3.799938,4.357486,8.922494751577105
1277695.213891675,-6.9346476,4.2976627,3.8119025,9.004989877210484
1277696.37111334,-7.138045,4.7714586,3.3237493,9.206835124123243
1277697.528335005,-7.6884136,4.5225964,4.0775156,9.807737524536495
1277698.68555667,-7.5448394,4.1277666,4.580026,9.743700366726387
1277699.842778335,-7.1978674,3.6755068,5.0849295,9.548568131651951
1277701.0,-7.2816195,3.7449012,5.049036,9.619720997504952
1277701.899448345,-7.415622,3.8956544,4.8336744,9.67119336257624
1277703.05667001,-7.2648687,3.9004402,4.618313,9.450955821925353
1277704.213891675,-7.138045,4.082301,4.137338,9.205130830296222
1277705.37111334,-6.9705415,4.4388447,3.5103962,8.978567399920479
1277706.528335005,-7.061472,4.5943837,3.328535,9.0582500316471
1277707.68555667,-7.0901866,4.2282686,4.1732316,9.25012774851267
1277708.842778335,-7.10933,4.0559793,4.6589923,9.418054490306785
1277710.0,-7.6931996,4.0464077,4.950927,10.003520056429558
1277710.899448345,-7.9061685,3.9817991,5.0322857,10.182638351113996
1277712.05667001,-7.394086,3.8334389,4.8958898,9.661133396717657
1277713.213891675,-6.8341455,3.8286529,4.6446347,9.10696213016683
1277714.37111334,-6.781502,4.4292727,3.8597608,8.972456712639294
1277715.528335005,-7.255297,5.1016803,3.1394954,9.40866131860629
1277716.68555667,-8.198103,4.9892135,3.594148,10.247879975541052
1277717.842778335,-7.7745585,4.4125223,4.343128,9.938655529914675
1277719.0,-7.5137315,4.058372,4.680528,9.738269184165134
1277720.899448345,-7.6931996,3.9937637,4.8839254,9.949281174519243
1277722.05667001,-7.779344,4.0033355,4.9628916,10.0585874370732
1277723.213891675,-7.7267003,4.000942,5.003571,10.037188708270115
1277724.37111334,-7.3534064,4.1062303,4.6996713,9.644719969405164
1277725.528335005,-6.8963614,4.6446347,4.0033355,9.228170305180454
1277726.68555667,-7.98992,5.21654,3.228033,10.073296790380446
1277727.842778335,-8.360821,4.6542063,4.0224786,10.38004326409378
1277729.0,-7.032757,3.9195836,4.527382,9.236882287458359
1277729.899448345,-6.6163907,3.5486827,5.1471453,9.102905005526416
1277731.05667001,-7.305548,3.7903664,5.1160374,9.690807381469911
1277732.213891675,-8.147852,4.1612673,4.924605,10.39015746569696
1277733.37111334,-8.143066,4.225876,4.7594943,10.335392485990287
1277734.528335005,-7.4275866,4.76428,4.051193,9.70976680163579
1277735.68555667,-7.4060507,5.283541,2.9791706,9.572922747706462
1277736.842778335,-7.599876,5.2572193,2.316335,9.526902844885818
1277738.0,-7.0423284,4.2019467,3.8860826,9.074821394226456
1277739.899448345,-6.4967456,3.5462897,5.2404685,9.068979221882564
1277741.05667001,-6.9848986,3.1969252,6.2335258,9.892723744547942
1277742.213891675,-7.7506294,3.3333209,5.8674107,10.276662524428623
1277743.37111334,-7.884632,3.306999,4.9868207,9.898082887881547
1277744.528335005,-7.2265825,3.7090075,3.4146798,8.811371595891899
1277745.68555667,-6.609212,4.5728474,1.6176059,8.19812572801525
1277746.842778335,-7.056686,5.1638956,0.8183746,8.78250374643931
1277748.0,-7.133259,5.0346785,1.8210031,8.918936251014067
1277748.899448345,-6.824574,4.1110163,4.5225964,9.16128503527942
1277750.05667001,-6.4177794,3.0318146,7.341442,10.211589633117926
1277751.213891675,-7.2648687,3.1634245,7.9827414,11.247654513484752
1277752.37111334,-8.710185,3.462538,6.9035397,11.641106155565504
1277753.528335005,-8.576182,3.6802926,4.582419,10.39682717035826
1277754.68555667,-7.2959766,4.44363,1.9717562,8.767265516504334
1277755.842778335,-7.2816195,5.3768644,0.2919348,9.056372300552724
1277757.0,-7.453909,5.388829,0.8566611,9.237646107736278
1277757.899448345,-7.1212945,4.2569833,4.2091255,9.303304770185667
1277759.05667001,-6.874825,3.3931437,7.7171288,10.877992455653946
1277760.213891675,-7.9540267,3.2687125,8.91119,12.38387376260228
1277761.37111334,-9.009299,3.5726118,7.37255,12.177254084866599
1277762.528335005,-9.121766,3.5797906,5.3218274,11.15093550218972
1277763.68555667,-8.473288,3.9985495,3.2687125,9.923179381758171
1277764.842778335,-7.5639825,4.836067,1.0552725,9.039633584280477
1277766.0,-6.716893,5.0418572,0.014357449,8.398641660112819
1277766.899448345,-5.9176617,4.532168,1.6247846,7.628839477421717
1277768.05667001,-5.7190504,3.5893621,5.343364,8.610609537027711
1277769.213891675,-6.1928463,2.9337053,8.207675,10.692235546802024
1277770.37111334,-7.4945884,2.7350938,9.526167,12.4256770878734
1277771.528335005,-8.961441,3.1586387,8.336892,12.640735400018572
1277772.68555667,-10.090894,3.7568657,5.541975,12.110064760673144
1277773.842778335,-9.440022,4.6207056,1.6056414,10.632169106431167
1277775.0,-7.942062,5.3649,-0.8710185,9.623781691683693
1277776.899448345,-6.8054304,4.943748,1.1103094,8.484533822224797
1277778.05667001,-6.9035397,4.0751224,5.9942346,10.009811756686286
1277779.213891675,-7.50416,3.6922572,8.789151,12.132368105087846
1277780.37111334,-8.281855,3.5893621,8.667113,12.513652155973908
1277781.528335005,-8.731722,3.6731138,6.949005,11.748336246595066
1277782.68555667,-9.016478,3.8430104,5.467795,11.22329660220281
1277783.842778335,-8.758043,4.323985,3.541504,10.389533870780248
1277785.0,-7.4515157,5.1878247,0.8997334,9.12404140369563
1277785.899448345,-6.2359185,5.2931128,0.016750356,8.17948673368887
1277787.05667001,-5.592226,4.6900997,2.029186,7.575461877246304
1277788.213891675,-6.2072034,4.027264,5.8458743,9.429871457558054
1277789.37111334,-7.293584,3.1155663,9.485488,12.364368303026875
1277790.528335005,-8.664721,3.1921394,9.877925,13.521854394368338
1277791.68555667,-9.99757,3.7472942,7.628591,13.122081403936445
1277792.842778335,-10.0932865,4.1469097,4.6422415,11.858402024529214
1277794.0,-8.676684,4.742744,1.7851094,10.048138208412558
1277794.899448345,-6.692964,5.460616,-0.2919348,8.642876843517039
1277796.05667001,-5.340971,5.1638956,0.78248096,7.470211874057046
1277797.213891675,-4.979642,4.357486,4.1038375,7.786270025806082
1277798.37111334,-5.467795,3.464931,7.65252,10.023152764833329
1277799.528335005,-6.767144,2.8571322,9.552489,12.05020698660956
1277800.68555667,-8.056922,3.017457,8.758043,12.276903357556499
1277801.842778335,-9.049978,3.5917552,6.369921,11.635235311907191
1277803.0,-9.262947,4.323985,3.6372204,10.850272146043627
1277803.899448345,-8.880082,5.5754757,0.66044265,10.506092047091226
1277805.05667001,-8.164602,6.3124914,-0.7154795,10.345056036986856
1277806.213891675,-6.65707,5.367293,1.639142,8.706962824596932
1277807.37111334,-5.790838,3.9100118,6.044486,9.238928943474955
1277808.528335005,-6.2622404,2.9313123,9.274912,11.568588472033547
1277809.68555667,-7.3031554,2.5915194,9.763065,12.464729832264737
1277810.842778335,-8.432608,3.0916374,7.6405554,11.791742293453158
1277812.0,-8.973405,3.5462897,5.1662884,10.944802591290792
1277813.899448345,-8.793938,4.474738,2.2565124,10.121683354454523
1277815.05667001,-7.707557,5.34815,0.1196454,9.382081770720728
1277816.213891675,-6.606819,5.362507,0.80162424,8.54687896521096
1277817.37111334,-6.1880603,4.0416217,5.5874405,9.265327170876764
1277818.528335005,-6.3483853,3.280677,8.939904,11.44494303283337
1277819.68555667,-7.4371586,3.2902486,8.51636,11.77562956028067
1277820.842778335,-7.7984877,3.6228628,5.802802,10.373719502949708
1277822.0,-7.994706,4.249805,3.9482985,9.877511205236026
1277822.899448345,-8.461323,4.6709566,3.3333209,10.223641752907296
1277824.05667001,-8.825045,5.520439,1.61282,10.533653419262757
1277825.213891675,-8.636005,6.1043086,0.1483603,10.576633520297236
1277826.37111334,-6.661856,5.125609,1.742037,8.584106586884042
1277827.528335005,-5.6687994,3.7784019,5.934412,9.03486875062986
1277828.68555667,-6.101916,2.8044882,9.308413,11.478026202861024
1277829.842778335,-6.824574,2.3737648,9.609919,12.023315382778414
1277831.0,-8.418251,3.153853,6.97772,11.379908393436653
1277831.899448345,-9.751101,4.039229,4.474738,11.463970594662479
1277833.05667001,-9.451987,4.6757426,1.978935,10.729343448871827
1277834.213891675,-8.528324,5.398401,0.31107804,10.098109385065465
1277835.37111334,-7.707557,5.5012956,1.2802058,9.555606473541175
1277836.528335005,-6.9609694,4.5656686,4.563276,9.49336150185688
1277837.68555667,-6.563747,3.050958,8.829831,11.417400531046198
1277838.842778335,-7.130866,3.0007067,9.073908,11.92431536826517
1277840.0,-8.358428,3.5558615,6.6474986,11.255963187367316
1277840.899448345,-8.774794,4.300056,3.6587565,10.434270001867128
1277842.05667001,-8.829831,4.6900997,2.5939124,10.32914963699214
1277843.213891675,-8.975799,5.3960075,1.9191123,10.647293395434755
1277844.37111334,-8.585754,5.9009113,1.3878866,10.51009776992789
1277845.528335005,-6.843717,5.185432,2.160796,8.854050302337852
1277846.68555667,-5.5563326,3.95787,4.716422,8.29350368546411
1277847.842778335,-5.671192,3.022243,7.16676,9.625945166554452
1277849.0,-6.0492716,2.4120514,8.219639,10.486855779361589
1277850.899448345,-7.3845143,2.9935281,7.2289753,10.758733467300145
1277852.05667001,-9.408915,3.9004402,5.802802,11.72235583328731
1277853.213891675,-9.837245,4.4412374,3.9315479,11.487081775767864
1277854.37111334,-8.6551485,5.080144,1.4501023,10.140130931021233
1277855.528335005,-7.0399356,5.49651,0.09810923,8.932073715171553
1277856.68555667,-6.537425,5.317042,1.6463208,8.585990533240858
1277857.842778335,-7.080615,4.271341,5.8745894,10.143483786899763
1277859.0,-7.9013824,3.9411197,8.303391,12.120667078161945
1277859.899448345,-9.014085,4.132552,7.997099,12.739125042000726
1277861.05667001,-9.4495945,4.3024487,6.3053126,12.147545760946146
1277862.213891675,-9.114587,4.3646646,4.560883,11.087274101002066
1277863.37111334,-8.059315,4.6494203,2.08183,9.534342323630774
1277864.528335005,-6.3627424,5.1830387,-0.33022133,8.213247052246901
1277865.68555667,-5.7621226,5.4582233,0.22014755,7.939944797910414
1277866.842778335,-6.463245,4.8264956,3.8932614,8.956901251860172
1277868.0,-6.257455,3.0796728,8.748472,11.188203160779162
1277868.899448345,-7.037543,3.0102785,9.466345,12.173761776190474
1277870.05667001,-8.245961,3.3931437,7.4874096,11.643478840129475
1277871.213891675,-8.176567,3.8406174,4.2474117,9.982339208220118
1277872.37111334,-8.375178,4.6039553,1.7803236,9.721602905735198
1277873.528335005,-8.571397,5.675978,0.22732627,10.282861956728054
1277874.68555667,-8.432608,6.2239537,0.47618872,10.49157914893954
1277875.842778335,-7.1643667,5.223718,2.88824,9.325090361663682
1277877.0,-5.886554,3.823867,5.8554463,9.141101038758334
1277877.899448345,-6.1737027,3.1155663,7.7745585,10.405052535552391
1277879.05667001,-6.769537,3.0246358,7.5663753,10.593634319602538
1277880.213891675,-7.647734,3.383572,6.274205,10.454761747451014
1277881.37111334,-9.014085,4.000942,5.077751,11.092556986222338
1277882.528335005,-9.727171,4.455595,3.5726118,11.279793328814373
1277883.68555667,-8.89444,4.8839254,1.3352427,10.234581735189204
1277884.842778335,-7.2457256,4.9820347,0.39243692,8.802000679315954
1277886.0,-6.7791085,4.613527,2.9480627,8.713897929034546
1277886.899448345,-7.386907,3.902833,7.4850163,11.217128396510565
1277888.05667001,-8.013849,3.8645465,8.882475,12.571987017615323
1277889.213891675,-8.530717,4.0296574,7.5376606,12.07590984631204
1277890.37111334,-8.193317,4.350307,4.8049593,10.447164607269979
1277891.528335005,-7.8798466,4.5178103,2.6154485,9.452151247333587
1277892.68555667,-8.207675,5.1184306,0.92366254,9.716862312518408
1277893.842778335,-8.502003,5.9176617,0.18664683,10.360386674579523
1277895.0,-7.803273,5.4797597,2.110545,9.765922182738201
1277896.899448345,-6.331635,4.03205,5.7310147,9.444128253435629
1277898.05667001,-6.0779867,3.0150642,8.537896,10.905420787952867
1277899.213891675,-6.874825,2.861918,8.346463,11.185581702786763
1277900.37111334,-7.9875274,3.304606,6.221561,10.650297463343819
1277901.528335005,-9.035621,3.9602628,4.2809124,10.754177759232856
1277902.68555667,-9.803744,4.455595,3.4242516,11.300054081360122
1277903.842778335,-9.73435,4.735565,2.3833365,11.084378136095738
1277905.0,-8.214853,4.70685,1.0815945,9.529328066371692
1277905.899448345,-7.025578,4.580026,1.7803236,8.573501998336324
1277907.05667001,-7.293584,4.371843,4.5919905,9.664147946601151
1277908.213891675,-7.391693,3.7257578,7.6453414,11.26808065790549
1277909.37111334,-7.528089,3.1993182,8.72215,11.957577579061413
1277910.528335005,-8.200496,3.441002,7.260083,11.48030637992336
1277911.68555667,-9.459166,4.5704546,4.113409,11.282065868780334
1277912.842778335,-9.834852,5.1758604,1.3376356,11.193887338211848
1277914.0,-8.569004,5.130395,0.16511066,9.988795920334274
1277914.899448345,-6.743215,4.462774,1.9071478,8.30809924365049
1277916.05667001,-6.034914,3.2830698,6.4441013,9.41940422021105
1277917.213891675,-6.949005,3.278284,8.217246,11.249842145523509
1277918.37111334,-7.9300976,3.8645465,6.307706,10.844737091263394
1277919.528335005,-7.267262,4.225876,3.8645465,9.252342654413651
1277920.68555667,-6.8867893,4.216304,3.8430104,8.94280801636257
1277921.842778335,-7.810452,4.331164,4.240233,9.886441115663867
1277923.0,-9.418487,5.1902175,3.0102785,11.16727503530013
1277923.899448345,-9.504631,5.620941,1.2802058,11.116290526160048
1277925.05667001,-7.729093,4.714029,2.6728783,9.439556473802194
1277926.213891675,-6.8652534,3.9482985,6.034914,9.956954970205992
1277927.37111334,-6.8796105,3.5271466,8.233996,11.294622344178569
1277928.528335005,-6.7527866,3.9674416,6.4967456,10.175874562201987
1277929.68555667,-6.750394,4.139731,4.374236,9.046498355236295
1277930.842778335,-7.4012647,4.419701,3.381179,9.2598513767181
1277932.0,-8.413465,5.0322857,2.4694812,10.109828389730607
1277933.899448345,-8.463716,5.21654,2.1368668,10.169217168553253
1277935.05667001,-7.547232,4.900676,2.3139422,9.2914834458089
1277936.213891675,-7.1691527,3.9482985,4.716422,9.446186953639206
1277937.37111334,-7.817631,4.213911,5.790838,10.602179262318007
1277938.528335005,-7.65252,3.9100118,6.5733185,10.819323949719848
1277939.68555667,-7.0399356,3.8430104,6.17131,10.120004412190516
1277940.842778335,-7.808059,4.42688,4.91264,10.232159285873193
1277942.0,-8.222033,4.824103,3.0054924,9.995337961977862
1277942.899448345,-8.401501,5.4893312,1.1653463,10.103267198051238
1277944.05667001,-8.463716,5.8698034,1.40703,10.395615128707274
1277945.213891675,-7.030364,4.4843097,4.1421237,9.310866780494273
1277946.37111334,-5.6687994,3.4697168,6.4106007,9.234176879640279
1277947.528335005,-6.750394,3.9315479,6.6977496,10.29003098875463
1277948.68555667,-7.4347653,4.4173083,5.6089764,10.307713807585557
1277949.842778335,-6.6474986,4.189982,4.5919905,9.10118473328699
1277951.0,-6.6809993,4.242626,3.9482985,8.844472175747898
1277951.899448345,-8.157424,4.9533195,2.916955,9.979357036246435
1277953.05667001,-10.074143,6.3435993,1.430959,11.990715279877614
1277954.213891675,-9.923389,6.214382,2.2038684,11.914244785623785
1277955.37111334,-7.391693,4.276127,5.7358007,10.286972207432976
1277956.528335005,-6.551782,3.6587565,7.757808,10.793328099649349
1277957.68555667,-7.549625,4.2833056,6.819788,11.038707028839942
1277958.842778335,-6.956184,4.307235,4.5991693,9.385793916187565
1277960.0,-6.31967,4.0799084,3.6611493,8.365876861284837
1277960.899448345,-7.0136137,4.1014442,3.7664373,8.955371103051654
1277962.05667001,-8.547467,4.824103,2.450338,10.116092041146224
1277963.213891675,-10.028678,5.9296265,0.5527618,11.663635730968517
1277964.37111334,-9.0428,5.441473,1.8353605,10.712161705962492
1277965.528335005,-7.394086,3.9124048,6.1617384,10.38972758086051
1277966.68555667,-6.561354,2.895419,9.947319,12.263114318420016
1277967.842778335,-7.418015,3.75208,8.91119,12.186646711984597
1277969.0,-7.891811,3.6611493,6.2622404,10.719158077200076
1277970.899448345,-7.106937,3.5989337,3.6108983,8.746397191524496
1277972.05667001,-6.3388133,3.5558615,2.060294,7.554436870202513
1277973.213891675,-6.750394,4.1493025,0.5886554,7.945504739894843
1277974.37111334,-9.124159,5.652049,-0.24168372,10.735657705804291
1277975.528335005,-10.325398,5.8243384,1.7635733,11.985280657564571
1277976.68555667,-8.51636,3.8980472,6.511103,11.406911146302352
1277977.842778335,-7.305548,2.88824,9.901854,12.6396073718775
1277979.0,-7.817631,3.2160685,9.207911,12.49976303906495
1277979.899448345,-7.475445,3.515182,6.4464946,10.478362232189635
1277981.05667001,-6.798252,3.8956544,4.23784,8.907953823709649
1277982.213891675,-6.609212,4.027264,3.0533507,8.320065449491999
1277983.37111334,-6.6211767,4.3838077,1.3113136,8.048434270138953
1277984.528335005,-7.425194,5.2955055,0.6580497,9.143790999680403
1277985.68555667,-7.205046,4.8312817,3.1299238,9.222277035563252
1277986.842778335,-5.936805,3.3165705,7.70995,10.280497190894769
1277988.0,-6.690571,3.409894,8.865725,11.618614253554595
1277989.899448345,-8.399107,4.2665553,6.405815,11.39223236857606
1277991.05667001,-8.621648,4.97007,3.4768956,10.541499563824084
1277992.213891675,-7.994706,4.891104,2.5843408,9.721987437545712
1277993.37111334,-8.312963,4.9150333,2.5986981,10.000806867169343
1277994.528335005,-9.408915,5.941591,1.7396442,11.263061174969247
1277995.68555667,-9.140909,5.6999073,2.8595252,11.145494378640606
1277996.842778335,-6.7240715,4.1564813,5.9296265,9.881798660358559
1277998.0,-5.599405,3.2830698,8.231604,10.482899793402256
1277998.899448345,-6.65707,3.7353296,7.001649,10.358202398328446
1278000.05667001,-7.217011,4.3790216,4.1971607,9.427472401922588
1278001.213891675,-6.6809993,4.479524,3.1658175,8.644321104429354
1278002.37111334,-6.9968634,4.2785196,3.7975452,9.037874581553274
1278003.528335005,-8.679078,5.178253,2.759023,10.47630216138414
1278004.68555667,-9.1983385,5.831517,1.3448143,10.973811880260921
1278005.842778335,-7.683628,4.8767467,3.8812969,9.893698158135535
1278007.0,-6.513496,3.720972,7.5903044,10.671643905765379
1278007.899448345,-6.381886,3.306999,7.8750606,10.662142878271204
1278009.05667001,-6.176096,3.6563635,4.900676,8.690787139397917
1278010.213891675,-6.7551794,4.544132,3.3452854,8.801847463292097
1278011.37111334,-7.2720475,4.4962745,3.878904,9.388559818354597
1278012.528335005,-8.667113,4.8887115,2.9337053,10.374245739920053
1278013.68555667,-9.844424,6.013378,0.46422416,11.545081330739412
1278014.842778335,-8.868117,5.8554463,1.4261732,10.722113620656653
1278016.0,-6.2383113,3.907619,6.374707,9.73770524614078
1278016.899448345,-5.42233,3.0748868,9.827674,11.637859240942477
1278018.05667001,-7.4323726,4.2904844,8.102386,11.802418300707279
1278019.213891675,-7.741058,4.5154176,4.381415,9.975458508959814
1278020.37111334,-6.1808815,4.1014442,1.9286839,7.664526223379701
1278021.528335005,-5.90809,3.9530842,1.4046371,7.246061518030746
1278022.68555667,-8.095208,5.049036,1.14381,9.60903004515336
1278023.842778335,-10.315826,6.3794928,1.5769265,12.23114433051667
1278025.0,-9.523774,5.398401,4.8025665,11.954482403968782
1278026.899448345,-7.650127,3.9817991,7.5089455,11.43518385120502
1278028.05667001,-7.193082,3.7616515,8.049743,11.431920793647288
1278029.213891675,-7.492195,4.1804104,6.64032,10.849085986056759
1278030.37111334,-6.7575727,3.902833,5.111252,9.328547112448877
1278031.528335005,-6.0061994,3.8932614,3.4290373,7.9366373462620565
1278032.68555667,-6.439316,4.2617693,2.132081,8.010820026990963
1278033.842778335,-7.70995,4.919819,1.6941789,9.301515475473135
1278035.0,-8.157424,4.6948857,3.0413861,9.891185341561126
1278035.899448345,-6.9155045,3.4721096,5.448652,9.46401374581823
1278037.05667001,-7.7817373,3.8693323,6.226347,10.690863614247615
1278038.213891675,-8.444572,4.218697,6.3172774,11.358529587474946
1278039.37111334,-7.2959766,3.7066147,5.903304,10.090553265228802
1278040.528335005,-6.4153867,3.383572,4.8073525,8.701516192536628
1278041.68555667,-7.4347653,4.225876,3.5223608,9.248826338451638
1278042.842778335,-8.808294,5.4510446,2.0937946,10.568060666395434
1278044.0,-8.578575,5.223718,2.163189,10.274169816772059
1278044.899448345,-8.104779,4.637456,3.2423904,9.88466166830151
1278046.05667001,-8.092815,4.319199,5.154324,10.522176130573087
1278047.213891675,-7.731486,4.0224786,6.97772,11.164442944189108
1278048.37111334,-7.16676,3.5032175,7.310334,10.820164737260807
1278049.528335005,-6.8389316,3.8382246,5.573083,9.62092550820412
1278050.68555667,-6.396243,3.9937637,3.929155,8.502960191633953
1278051.842778335,-6.7862873,4.187589,3.2112827,8.596623379582333
1278053.0,-8.980584,5.053822,1.6439278,10.435252962930647
1278053.899448345,-10.150716,5.484545,0.5910483,11.552774872843921
1278055.05667001,-8.736507,4.611134,3.1155663,10.358371720338129
1278056.213891675,-6.824574,3.1394954,8.341678,11.225632877650202
1278057.37111334,-6.769537,3.0892444,9.45438,12.031432306325808
1278058.528335005,-7.0734363,3.541504,6.563747,10.279033337439017
1278059.68555667,-7.054293,4.1014442,3.4721096,8.867944481669628
1278060.842778335,-6.4919596,4.0966587,1.9167194,7.912140368487798
1278062.0,-7.1643667,4.288091,1.4118158,8.468122489045582
1278063.899448345,-8.700614,4.9269977,0.72983694,10.025400354688578
1278065.05667001,-8.750865,4.6948857,2.605877,10.266946231641542
