timestamp,accel_x,accel_y,accel_z,magnitude
2666964.0861486485,0.16989647,-0.57908374,-9.636241,9.655120061321448
2666968.6452702703,0.22971918,-0.7776951,-9.763065,9.796684069849801
2666973.204391892,0.16271774,-0.6460852,-9.846817,9.86933169875543
2666977.7635135134,0.11485959,-0.7226582,-10.016713,10.043404150177926
2666982.322635135,0.30150643,-0.7944455,-9.67692,9.714156189098548
2666986.881756757,0.12921704,-0.63651353,-9.853995,9.875376649896673
2666991.440878378,0.15075321,-0.93084127,-9.751101,9.79658934080946
2666996.0,0.009571632,-0.40200856,-9.877925,9.88610665550789
2667001.0861486485,0.067001425,-0.47140288,-9.719993,9.731648050883948
2667005.6452702703,0.016750356,-0.22732627,-9.552489,9.555208208227555
2667010.204391892,0.234505,-0.7776951,-9.985605,10.018588197925595
2667014.7635135134,0.37329367,-0.72744405,-10.038249,10.071492739209193
2667019.322635135,-0.12682413,0.09332342,-9.308413,9.309744690336021
2667023.881756757,0.13400285,-0.25604117,-9.86596,9.870191516183619
2667028.440878378,0.30389932,-0.9499845,-9.863567,9.913868029705949
2667033.0,0.21775463,-1.1462029,-9.820495,9.889556118040883
2667037.0861486485,-0.016750356,-0.45704544,-9.786994,9.79767434979786
2667041.6452702703,0.31586388,-1.4357449,-9.985605,10.093237370863209
2667046.204391892,0.63651353,-2.187118,-10.2847185,10.533948416621344
2667050.7635135134,-0.3565433,-0.3230426,-9.0978365,9.110549304346138
2667055.322635135,-0.3828653,-0.7106937,-9.758279,9.79161275863199
2667059.881756757,-0.13160995,-0.81358874,-9.66017,9.69526339228047
2667064.440878378,0.069394335,-1.2299547,-9.964069,10.039934022419828
2667069.0,-0.0598227,-0.7441944,-9.920997,9.949049478941978
2667074.0861486485,0.13878867,-0.6939433,-10.066964,10.09180775559222
2667078.6452702703,-0.0598227,-0.57908374,-9.954497,9.971505766752415
2667083.204391892,0.09810923,-0.63172776,-10.019106,10.039481581386651
2667087.7635135134,0.009571632,-0.7776951,-9.80853,9.83931715342092
2667092.322635135,0.234505,-1.2562767,-9.751101,9.8344900454568
2667096.881756757,0.0598227,-0.96194905,-9.779816,9.827193176288294
2667101.440878378,0.28236315,-1.3256711,-9.853995,9.946775873310814
2667106.0,-0.011964541,-0.9763065,-9.801352,9.849863885358396
2667110.0861486485,0.05025107,-1.0552725,-9.696064,9.753449764641656
2667114.6452702703,0.033500712,-1.0074143,-9.705635,9.757835652580646
2667119.204391892,0.09332342,-1.2347406,-9.856388,9.933865210307259
2667123.7635135134,0.040679436,-0.8638398,-9.806137,9.84419610122362
2667128.322635135,-0.09571633,-1.0241647,-9.853995,9.907537151511457
2667132.881756757,-0.040679436,-1.2155973,-9.806137,9.881277977825013
2667137.440878378,-0.19143265,-1.0696299,-10.01432,10.073100795924761
2667142.0,-0.009571632,-1.0480938,-9.844424,9.900064450371703
2667146.0861486485,0.009571632,-1.1749178,-9.798959,9.869149960182842
2667150.6452702703,-0.08135887,-0.6125845,-9.858782,9.87813046881301
2667155.204391892,0.25125536,-0.79205257,-9.636241,9.672001713174648
2667159.7635135134,0.071787246,-0.42593765,-9.84921,9.85867708744311
2667164.322635135,0.014357449,-0.64369226,-9.746315,9.767558647950402
2667168.881756757,-0.1196454,-0.54558307,-9.84921,9.865034897663149
2667173.440878378,0.33500713,-0.028714897,-9.595561,9.601450162719253
2667178.0,0.13160995,0.15075321,-9.837245,9.83928030392921
2667183.0861486485,0.39961565,-0.96194905,-10.110037,10.163556797887727
2667187.6452702703,0.5025107,-1.6367491,-9.837245,9.985131637088731
2667192.204391892,0.004785816,-1.0457008,-9.688885,9.745152929040183
2667196.7635135134,0.031107806,-1.1414171,-9.815709,9.881899810484194
2667201.322635135,-0.20339718,-1.3591717,-9.94014,10.034694880389381
2667205.881756757,0.09571633,-1.1127023,-9.925783,9.988415098870439
2667210.440878378,0.23211208,-1.0122001,-9.920997,9.975199573649187
2667215.0,0.17707519,-0.9667349,-9.844424,9.893362213199694
2667219.0861486485,-0.17707519,-0.9547703,-9.834852,9.882674527200601
2667223.6452702703,0.011964541,-1.170132,-9.810924,9.880464654126412
2667228.204391892,0.035893623,-0.4115802,-9.688885,9.697689372032347
2667232.7635135134,0.19861138,-0.45465255,-9.913818,9.926225000402267
2667237.322635135,0.12682413,-1.1773108,-10.057393,10.126860275336867
2667241.881756757,-0.08614469,-1.2395264,-9.834852,9.913029832791596
2667246.440878378,0.18664683,-0.7489802,-9.834852,9.865096159746496
2667251.0,0.09810923,-0.6939433,-9.786994,9.81205555837624
2667256.0861486485,-0.06460852,-1.1533817,-9.722385,9.790772885476226
2667260.6452702703,-0.13878867,-1.7635733,-9.7415285,9.900849993596786
2667265.204391892,-0.069394335,-1.7013576,-9.830067,9.976454805255063
2667269.7635135134,0.07418015,-1.0504867,-9.820495,9.876798420872824
2667274.322635135,-0.07418015,-1.2179902,-9.688885,9.765423460617317
2667278.881756757,-0.12921704,-2.010043,-9.765458,9.971014986200721
2667283.440878378,-0.004785816,-1.1820966,-9.645813,9.717977346481899
2667288.0,0.12203831,-1.1127023,-9.834852,9.898349035037961
2667293.0861486485,-0.031107806,-1.5218896,-9.724778,9.843191697791235
2667297.6452702703,-0.110073775,-1.5242825,-9.621883,9.742493820446487
2667302.204391892,-0.13878867,-1.7635733,-9.645813,9.806689630571688
2667306.7635135134,0.09571633,-1.483603,-9.736743,9.849589013024183
2667311.322635135,0.055036888,-1.2634555,-9.789387,9.87073688714728
2667315.881756757,-0.004785816,-1.6319634,-9.846817,9.981138836548832
2667320.440878378,0.08135887,-1.6965718,-9.856388,10.00166783815714
2667325.0,0.22493336,-1.1390243,-9.7176,9.786711456481761
2667329.0861486485,-0.12921704,-1.6846073,-9.746315,9.891676039876389
2667333.6452702703,0.071787246,-1.3854938,-9.686492,9.785339735777736
2667338.204391892,0.110073775,-1.6367491,-9.775029,9.911723150044828
2667342.7635135134,0.19382556,-1.4596739,-9.767851,9.87821488935382
2667347.322635135,0.15075321,-0.9691278,-9.60274,9.652696552293467
2667351.881756757,0.22014755,-1.1342385,-9.624276,9.693381785673628
2667356.440878378,-0.011964541,-1.0624512,-9.624276,9.682749311368068
2667361.0,0.17946811,-1.1079165,-9.731957,9.79646236267604
2667365.0861486485,0.08135887,-0.8040171,-9.52856,9.562767300129188
2667369.6452702703,-0.069394335,-1.4955676,-9.722385,9.836986739247179
2667374.204391892,0.105287954,-1.4405307,-9.853995,9.95928871511038
2667378.7635135134,0.31825677,-1.4118158,-9.7917795,9.898154221944651
2667383.322635135,0.19621846,-1.3328499,-9.777423,9.869801976782705
2667387.881756757,0.25125536,-1.0337363,-9.916211,9.97311288366814
2667392.440878378,0.416366,-0.8231604,-9.923389,9.966172933248005
2667397.0,0.45943835,-0.9021264,-9.794173,9.846356706566988
2667402.0861486485,0.30150643,-1.0098072,-9.70085,9.757925365107237
2667406.6452702703,0.067001425,-1.4979604,-9.571632,9.688370022575736
2667411.204391892,0.22254045,-1.6582853,-9.612311,9.756841555995633
2667415.7635135134,0.15793194,-1.797074,-9.583597,9.751910013815609
2667420.322635135,0.047858164,-1.7276796,-9.629062,9.782944454711046
2667424.881756757,0.055036888,-1.849718,-9.650599,9.82642085386972
2667429.440878378,0.23211208,-1.7755378,-9.708028,9.871789004314
2667434.0,0.27997026,-1.5601761,-9.751101,9.879094266262301
2667438.0861486485,0.30150643,-1.328064,-9.806137,9.900251662366788
2667442.6452702703,0.36850783,-1.0839874,-9.904246,9.970201378740857
2667447.204391892,0.3565433,-1.1509888,-9.856388,9.92976750730068
2667451.7635135134,0.42115182,-1.2921704,-9.803744,9.897498149313364
2667456.322635135,0.6006199,-1.2825987,-9.868353,9.969463106011613
2667460.881756757,0.9140909,-1.2084186,-9.889889,10.00528570899451
2667465.440878378,0.7633377,-0.5695121,-9.796566,9.8427503203446
2667470.0,0.93323416,-0.45943835,-9.901854,9.95634080534398
2667474.0861486485,0.023929082,-0.9164838,-9.820495,9.863196094656782
2667478.6452702703,0.9763065,-0.69155043,-9.810924,9.88360491485528
2667483.204391892,0.73701566,-0.97152066,-9.8922825,9.967160956646499
2667487.7635135134,0.75615895,-1.1653463,-9.686492,9.785598378364645
2667492.322635135,0.6819788,-1.2658484,-9.815709,9.920464224425842
2667496.881756757,0.27757734,-1.1557746,-9.624276,9.697399271447095
2667501.440878378,0.703515,-0.84230363,-9.803744,9.864978721612742
2667506.0,0.12921704,-1.0696299,-9.796566,9.85563344279587
2667511.0861486485,0.5072965,-1.1007377,-9.617098,9.693170129772692
2667515.6452702703,0.3278284,-1.3400285,-9.73435,9.831618267770509
2667520.204391892,0.30629224,-1.87604,-9.664956,9.850112461277801
2667524.7635135134,0.12203831,-1.4668527,-9.784601,9.894693877114438
2667529.322635135,0.48576033,-0.92605543,-9.7176,9.773704083797206
2667533.881756757,0.14357449,-1.1677392,-9.794173,9.864585811240348
2667538.440878378,0.3230426,-0.7202653,-9.82528,9.856939976595111
2667543.0,0.16989647,-0.8542682,-9.674527,9.71365593593775
2667548.0861486485,-0.033500712,-1.3065279,-9.724778,9.812208956217093
2667552.6452702703,0.19143265,-1.3352427,-9.827674,9.919813293488206
2667557.204391892,0.13400285,-1.2490981,-9.731957,9.812705532985321
2667561.7635135134,0.36850783,-1.2179902,-9.73435,9.81717210150496
2667566.322635135,0.48576033,-1.2682413,-9.856388,9.949511721676165
2667570.881756757,0.14357449,-0.99784267,-9.5500965,9.60315816737201
2667575.440878378,0.3326142,-1.5242825,-9.708028,9.832592587646042
2667580.0,0.49533197,-1.4548881,-9.746315,9.866747651746785
2667584.0861486485,0.83751786,-0.7872668,-9.798959,9.866145278875749
2667588.6452702703,0.63412064,-0.7489802,-9.724778,9.774169400790537
2667593.204391892,0.5695121,-0.9691278,-9.784601,9.848957785165913
2667597.7635135134,0.54558307,-0.83033913,-9.715207,9.76587789243388
2667602.322635135,0.7322299,-0.38765112,-9.870746,9.905456103269918
2667606.881756757,0.8518753,-1.1462029,-9.897068,9.999571371381002
2667611.440878378,0.7968384,-0.74658734,-9.708028,9.769245198107521
2667616.0,0.73701566,-1.0193789,-9.885103,9.964817446670033
2667621.0861486485,0.61497736,-0.60540575,-9.746315,9.784445275776784
2667625.6452702703,0.571905,-1.0026284,-9.760673,9.82868640513271
2667630.204391892,0.39243692,-1.3998512,-9.758279,9.865981915661589
2667634.7635135134,0.45943835,-1.5266753,-9.516596,9.649218646931823
2667639.322635135,0.67001426,-1.1773108,-9.748708,9.842372046293718
2667643.881756757,0.45225963,-1.7875023,-9.961677,10.130879127586216
2667648.440878378,-0.20100428,-1.9573988,-9.621883,9.82102058080059
2667653.0,0.11485959,-1.588891,-9.6912775,9.821335291970344
2667657.0861486485,-0.03828653,-1.7348584,-9.626669,9.78181760011865
2667661.6452702703,0.49293905,-2.029186,-9.834852,10.054098596667675
2667666.204391892,0.5072965,-1.9334698,-9.557275,9.76407500135314
2667670.7635135134,0.11485959,-2.1727605,-9.767851,10.007247077692059
2667675.322635135,-0.1196454,-1.6558924,-9.468738,9.613183342408638
2667679.881756757,-0.4737958,-2.3522286,-9.353878,9.656733168398079
2667684.440878378,-0.69155043,-2.0650797,-9.389771,9.639014244051424
2667689.0,-0.21775463,-2.005257,-9.588383,9.798242764374868
2667693.0861486485,-0.34457877,-1.8927903,-9.667349,9.856927834589731
2667697.6452702703,-0.13639577,-2.471874,-9.727171,10.03726160569659
2667702.204391892,-0.2919348,-2.2708697,-9.748708,10.01395939631738
2667706.7635135134,-0.6532639,-2.1272953,-9.652991,9.906178590280225
2667711.322635135,-0.2967206,-1.8951832,-9.679314,9.867567176696726
2667715.881756757,-0.34457877,-1.8473251,-9.810924,9.989272960911656
2667720.440878378,-0.2656128,-1.7516087,-9.712814,9.873066342126721
2667725.0,0.11246668,-1.8640754,-9.705635,9.883662104919429
2667730.0861486485,0.19382556,-1.8712541,-9.70085,9.88158140061479
2667734.6452702703,0.4498667,-1.902362,-9.681706,9.877084200170053
2667739.204391892,0.41875893,-1.9382555,-9.736743,9.936617013490254
2667743.7635135134,0.5240469,-1.9597918,-9.755886,9.96457328227069
2667748.322635135,0.3230426,-1.8832186,-9.760673,9.94593415571055
2667752.881756757,0.5049036,-1.8425392,-9.667349,9.854314539156471
2667757.440878378,0.6819788,-1.8281817,-9.772636,9.965528475718703
2667762.0,0.59583414,-1.6774286,-9.861175,10.020556741574417
2667766.0861486485,0.6221561,-1.5745336,-9.777423,9.922914631862213
2667770.6452702703,0.46422416,-1.430959,-9.810924,9.925592046028525
2667775.204391892,0.4091873,-1.4644598,-9.889889,10.006097200438257
2667779.7635135134,0.6221561,-1.2921704,-9.830067,9.934133066347178
2667784.322635135,0.4498667,-1.1390243,-9.853995,9.929802307386808
2667788.881756757,0.35415038,-0.9499845,-9.755886,9.808425188932747
2667793.440878378,0.6532639,-1.0169859,-9.868353,9.942102643628814
2667798.0,0.54558307,-0.7681235,-9.813316,9.85844031849759
2667803.0861486485,0.4115802,-0.8183746,-9.856388,9.898864563852827
2667807.6452702703,0.59583414,-0.9834852,-9.875532,9.942252951118904
2667812.204391892,0.5025107,-1.0026284,-9.834852,9.898590534717812
2667816.7635135134,0.4450809,-0.96194905,-9.870746,9.927490598275917
2667821.322635135,0.3828653,-0.9188767,-9.7176,9.76845279395601
2667825.881756757,0.27518442,-1.0433079,-9.552489,9.613233791723477
2667830.440878378,0.39004403,-1.2921704,-9.533346,9.628422749531245
2667835.0,0.31347096,-1.1031306,-9.698457,9.76602423426589
2667840.0861486485,0.39482984,-1.0026284,-9.739136,9.798567463539607
2667844.6452702703,0.5360114,-0.99784267,-9.705635,9.7715069957621
2667849.204391892,0.5168682,-0.9834852,-9.779816,9.842723041346144
2667853.7635135134,0.49293905,-0.98827106,-9.82528,9.887153062102781
2667858.322635135,0.442688,-0.9475916,-9.798959,9.854618206171946
2667862.881756757,0.54558307,-1.0433079,-9.753493,9.824295290834964
2667867.440878378,0.49054617,-1.2323477,-9.770244,9.859867352968445
2667872.0,0.6484781,-1.3496002,-9.786994,9.900868451911462
2667876.0861486485,0.59583414,-1.3639576,-9.877925,9.98943446660582
2667880.6452702703,0.5599405,-1.2084186,-9.729565,9.820297549748235
2667885.204391892,0.8566611,-1.4142087,-9.705635,9.845466227692516
2667889.7635135134,0.93562704,-1.4189945,-9.853995,9.999508028349915
2667894.322635135,0.7872668,-1.40703,-9.810924,9.942522424870775
2667898.881756757,0.6460852,-1.2802058,-9.794173,9.898594735109711
2667903.440878378,0.2943277,-1.3256711,-9.897068,9.989794174906033
2667908.0,0.75615895,-1.3089207,-9.846817,9.962171188452976
2667913.0861486485,0.57429796,-1.1127023,-9.858782,9.937983048828844
2667917.6452702703,0.71787244,-1.2658484,-9.69367,9.802293154195812
2667922.204391892,0.7489802,-1.1103094,-9.822887,9.913771599068106
2667926.7635135134,0.50968945,-1.14381,-9.7415285,9.821683265502585
2667931.322635135,0.4498667,-1.117488,-9.715207,9.789607067230119
2667935.881756757,0.5527618,-1.0337363,-9.617098,9.688277983577935
2667940.440878378,0.8351249,-0.93084127,-9.710421,9.790616684651495
2667945.0,0.42354473,-0.8638398,-9.58599,9.634148307892858
2667949.0861486485,0.48097453,-1.0433079,-9.696064,9.763886775501195
2667953.6452702703,-0.27039862,-0.7322299,-9.633848,9.66541790753281
2667958.204391892,-0.011964541,-0.7609448,-9.542917,9.573214977622584
2667962.7635135134,0.28475606,-1.0504867,-9.861175,9.92105743866089
2667967.322635135,0.34457877,-1.1007377,-9.889889,9.956920329361735
2667971.881756757,0.19621846,-0.8805902,-9.770244,9.811809649800429
2667976.440878378,0.234505,-1.0480938,-9.624276,9.684016818077065
2667981.0,0.15553902,-0.8231604,-9.681706,9.717881276353747
2667985.0861486485,0.11246668,-1.0433079,-9.657777,9.71461768213457
2667989.6452702703,0.3804724,-1.1820966,-9.696064,9.77526310188065
2667994.204391892,0.40200856,-1.2347406,-9.775029,9.860901945686441
2667998.7635135134,0.61497736,-1.2849916,-9.789387,9.892497076125528
2668003.322635135,0.5025107,-1.0313433,-9.767851,9.834993602655286
2668007.881756757,0.51926106,-0.9691278,-9.830067,9.891362796180017
2668012.440878378,0.3230426,-0.99066395,-9.731957,9.78758185830869
2668017.0,0.5001178,-0.93802,-9.729565,9.787463125013643
2668022.0861486485,0.48815325,-1.0074143,-9.73435,9.798507390915722
2668026.6452702703,0.49293905,-1.0959519,-9.80853,9.881870280216619
2668031.204391892,0.5144752,-1.1031306,-9.813316,9.88851620658668
2668035.7635135134,0.53840435,-1.1031306,-9.753493,9.830432445513487
2668040.322635135,0.598227,-1.0959519,-9.815709,9.894803145253755
2668044.881756757,0.46422416,-1.117488,-9.842031,9.916141270969907
2668049.440878378,0.5623334,-1.0600582,-9.839638,9.912538434285478
2668054.0,0.46901,-1.170132,-9.889889,9.969908911812835
2668058.0861486485,0.32064968,-1.2155973,-9.88271,9.962351627861334
2668062.6452702703,0.33979294,-1.1509888,-9.889889,9.962436393378896
2668067.204391892,0.4785816,-1.1485959,-9.877925,9.955988910951055
2668071.7635135134,0.5288327,-1.1725249,-9.796566,9.880646945320196
2668076.322635135,0.53840435,-1.1940612,-9.813316,9.900345060112823
2668080.881756757,0.5312256,-1.14381,-9.743921,9.825197118044827
2668085.440878378,0.4977249,-1.1533817,-9.708028,9.788964555598254
2668090.0,0.51208234,-1.2036327,-9.739136,9.826582825476269
2668094.0861486485,0.5072965,-1.2108115,-9.664956,9.753706408816113
2668098.6452702703,0.43311638,-1.0911661,-9.645813,9.71699241984795
2668103.204391892,0.442688,-1.1055236,-9.614705,9.688173580842056
2668107.7635135134,0.2991135,-1.1222739,-9.638634,9.708358923034286
2668112.322635135,0.37090075,-0.99784267,-9.674527,9.732919913065773
2668116.881756757,0.3517575,-1.0050215,-9.69367,9.751976190658409
2668121.440878378,0.34697166,-1.0696299,-9.655384,9.720644919102496
2668126.0,0.5144752,-1.1318455,-9.839638,9.917874517169961
2668131.0861486485,0.77530223,-1.1677392,-9.806137,9.905807955428402
2668135.6452702703,0.66044265,-1.040915,-9.853995,9.930805908444139
2668140.204391892,0.60301286,-1.0457008,-9.899461,9.972785105624558
2668144.7635135134,0.48815325,-1.0504867,-9.815709,9.883823100149225
2668149.322635135,0.6389065,-1.0815945,-9.810924,9.891020064277926
2668153.881756757,0.6484781,-1.1031306,-9.760673,9.844194145777752
2668158.440878378,0.47140288,-1.0337363,-9.729565,9.795675908401368
2668163.0,0.5527618,-0.96194905,-9.679314,9.742690136349978
2668168.0861486485,0.62454903,-0.9571632,-9.770244,9.836863865167809
2668172.6452702703,0.6197632,-1.0863802,-9.727171,9.807251604107405
2668177.204391892,0.54797596,-0.94280577,-9.815709,9.87609758686923
2668181.7635135134,0.5599405,-0.9739136,-9.901854,9.96537775004647
2668186.322635135,0.49533197,-1.0504867,-9.885103,9.953096874239193
2668190.881756757,0.5551547,-1.0074143,-9.767851,9.835344095199599
2668195.440878378,0.5240469,-1.1773108,-9.987998,10.070788942342116
2668200.0,0.5336185,-1.0624512,-9.870746,9.942091221289397
2668204.0861486485,0.650871,-0.9451987,-9.82528,9.892075652739555
2668208.6452702703,0.4498667,-0.8997334,-9.822887,9.874259934476783
2668213.204391892,0.5001178,-0.97152066,-9.801352,9.862072360036082
2668217.7635135134,0.57429796,-1.014593,-9.775029,9.84430845988433
2668222.322635135,0.4737958,-0.9475916,-9.652991,9.71095502752274
2668226.881756757,0.46183127,-0.8710185,-9.652991,9.7032054804262
2668231.440878378,0.3278284,-0.83033913,-9.7917795,9.832389348844764
2668236.0,0.47140288,-0.89734054,-9.770244,9.822683367569972
2668241.0861486485,0.39961565,-0.87819725,-9.724778,9.772524250515652
2668245.6452702703,0.3852582,-0.9858781,-9.729565,9.786971676568388
2668250.204391892,0.33022133,-1.0098072,-9.767851,9.825460287750383
2668254.7635135134,0.46661708,-1.0337363,-9.777423,9.842984443664148
2668259.322635135,0.46661708,-0.95955616,-9.779816,9.837849384768893
2668263.881756757,0.48336744,-0.89734054,-9.832459,9.885146135159593
2668268.440878378,0.46661708,-0.8901618,-9.806137,9.857506905516017
2668273.0,0.5336185,-1.0265576,-9.7917795,9.859894268514255
2668277.0861486485,0.48097453,-1.0528796,-9.782208,9.850456096337311
2668281.6452702703,0.50968945,-1.0241647,-9.779816,9.846496720256571
2668286.204391892,0.52165395,-0.93562704,-9.818102,9.876368142385832
2668290.7635135134,0.47618872,-0.96434194,-9.767851,9.826882732204512
2668295.322635135,0.43550926,-0.9763065,-9.739136,9.797633016396562
2668299.881756757,0.42115182,-0.93802,-9.856388,9.909875618918399
2668304.440878378,0.44747382,-0.9140909,-9.832459,9.884990894266378
2668309.0,0.53840435,-0.9667349,-9.832459,9.894529074072093
2668313.0861486485,0.48815325,-0.90691215,-9.820495,9.874355942962973
2668317.6452702703,0.48097453,-0.95237744,-9.818102,9.87590432158664
2668322.204391892,0.5336185,-0.94280577,-9.794173,9.853905630632788
2668326.7635135134,0.54797596,-0.90691215,-9.739136,9.79660846043423
2668331.322635135,0.56711924,-0.86862564,-9.710421,9.765675129354069
2668335.881756757,0.5934412,-0.8877689,-9.746315,9.804639828004374
2668340.440878378,0.69872916,-0.9093051,-9.834852,9.901483326543772
2668345.0,0.677193,-0.8279462,-9.84921,9.907119808170457
2668350.0861486485,0.67240715,-0.8279462,-9.8922825,9.949617045156653
2668354.6452702703,0.57669085,-0.87580436,-9.894675,9.950085374965067
2668359.204391892,0.48815325,-0.87819725,-9.777423,9.828912682810959
2668363.7635135134,0.43550926,-0.78487384,-9.767851,9.80900649497507
2668368.322635135,0.52165395,-0.68915755,-9.842031,9.879910686703276
2668372.881756757,0.5360114,-0.6389065,-9.80853,9.84392048411466
2668377.440878378,0.4785816,-0.7154795,-9.822887,9.860530425770603
2668382.0,0.39722276,-0.9188767,-9.772636,9.82377395400367
2668386.0861486485,0.40679437,-1.040915,-9.832459,9.895768574667139
2668390.6452702703,0.46183127,-1.0241647,-9.786994,9.851266568858641
2668395.204391892,0.42593765,-0.9691278,-9.786994,9.844078582094738
2668399.7635135134,0.38765112,-0.99305683,-9.753493,9.811577903655248
2668404.322635135,0.36372203,-1.0289505,-9.703242,9.76442205955486
2668408.881756757,0.40679437,-1.040915,-9.743921,9.807802106024045
2668413.440878378,0.39004403,-1.117488,-9.810924,9.88206170337236
2668418.0,0.39961565,-1.1270597,-9.772636,9.845525411250788
2668423.0861486485,0.43311638,-1.1390243,-9.729565,9.80558010746125
2668427.6452702703,0.44747382,-1.1557746,-9.724778,9.803435871921362
2668432.204391892,0.40679437,-1.1366314,-9.655384,9.73056281961047
2668436.7635135134,0.39482984,-1.2179902,-9.684099,9.768375718186286
2668441.322635135,0.5025107,-1.2467052,-9.66017,9.753239220290947
2668445.881756757,0.54079723,-1.1605604,-9.619491,9.704327343257999
2668450.440878378,0.44747382,-1.0337363,-9.621883,9.68759392332338
2668455.0,0.442688,-0.9834852,-9.736743,9.79629419995194
2668460.0861486485,0.057429794,-0.7513731,-10.351721,10.3791130342859
2668464.6452702703,0.93562704,-0.48097453,-9.502238,9.560296097147404
2668469.204391892,0.45465255,-0.598227,-9.971248,9.999518546522852
2668473.7635135134,0.25125536,-0.79205257,-10.019106,10.053504939512804
2668478.322635135,0.27518442,-0.72744405,-9.712814,9.743903586832493
2668482.881756757,0.06221561,-0.6819788,-9.657777,9.682025740902887
2668487.440878378,0.23211208,-1.0911661,-9.674527,9.738633998112883
2668492.0,0.047858164,-1.0624512,-9.758279,9.816063467504879
2668496.0861486485,0.3326142,-1.2084186,-9.889889,9.968992534413324
2668500.6452702703,0.016750356,-1.0433079,-9.7917795,9.847218781221873
2668505.204391892,-0.10050214,-0.96194905,-9.837245,9.884676820461328
2668509.7635135134,0.1483603,-1.0839874,-9.930569,9.990657642304427
2668514.322635135,-0.40200856,-0.7992313,-9.820495,9.861161371676156
2668518.881756757,-0.2967206,-0.8255533,-9.94014,9.978775705726893
2668523.440878378,0.24886245,-2.7231295,-11.021734,11.355878969042697
2668528.0,-0.6389065,-0.58626246,-10.031071,10.068480053850656
2668532.0861486485,-0.6939433,-0.7418015,-10.165073,10.215700458820537
2668536.6452702703,-0.6867646,-0.9834852,-10.153109,10.223722957920623
2668541.204391892,-0.6221561,-1.2012398,-10.023892,10.114764757399712
2668545.7635135134,-0.7106937,-1.0217718,-10.167466,10.243362143732442
2668550.322635135,-0.30389932,-0.8614469,-10.110037,10.151221291036123
2668554.881756757,-0.25604117,-1.0457008,-10.172253,10.2290653698109
2668559.440878378,-0.63172776,-1.2347406,-10.045428,10.140724235242123
2668564.0,-0.46183127,-1.588891,-10.105251,10.239822288732936
2668569.0861486485,3.0557437,-6.331635,-10.600583,12.720044468208581
2668573.6452702703,-0.5551547,-0.3278284,-9.906639,9.927596107673784
2668578.204391892,-0.68915755,-1.8616825,-10.062179,10.256132121202869
2668582.7635135134,-0.4402951,-2.2421548,-9.789387,10.052522855383918
2668587.322635135,-0.5838696,-2.4144442,-9.801352,10.111228685606008
2668591.881756757,-0.8231604,-2.0267932,-9.70085,9.944444400880041
2668596.440878378,-0.13400285,-2.3546216,-9.672134,9.955519863721365
2668601.0,-0.8638398,-1.9813279,-9.856388,10.090602749782912
2668605.0861486485,-1.1318455,-1.5673548,-9.961677,10.147545711022063
2668609.6452702703,-0.5312256,-2.811667,-9.56924,9.987893978941926
2668614.204391892,-0.27757734,-3.122745,-9.763065,10.25407351782361
2668618.7635135134,-0.1483603,-2.8212388,-9.6410265,10.046431760527904
2668623.322635135,0.78248096,-2.7662017,-9.830067,10.2417950341888
2668627.881756757,-0.8255533,-2.5364826,-9.542917,9.908710667898859
2668632.440878378,-0.19621846,-2.1225095,-9.571632,9.80610459892505
2668637.0,0.19861138,-2.2756555,-9.507024,9.77760501204266
2668641.0861486485,-0.3254355,-2.3522286,-9.478309,9.771245015390782
2668645.6452702703,-0.22254045,-2.6896286,-9.392164,9.772224458163052
2668650.204391892,-0.22971918,-2.6968074,-9.346699,9.730689762342422
2668654.7635135134,0.13400285,-2.7709875,-9.832459,10.216338799963781
2668659.322635135,-0.21536173,-2.474267,-9.842031,10.150564125554727
2668663.881756757,-0.5623334,-2.4383733,-9.875532,10.187640329631414
2668668.440878378,0.7322299,-2.2589052,-9.999963,10.278038398955806
2668673.0,1.0122001,-2.0555081,-9.916211,10.177470372746198
2668678.0861486485,0.44747382,-2.0244002,-9.617098,9.838038571328608
2668682.6452702703,1.0720228,-2.108152,-9.636241,9.922231520626035
2668687.204391892,1.9406484,-1.9143264,-9.521381,9.903911243812745
2668691.7635135134,1.9813279,-1.8736471,-9.444808,9.830595702169875
2668696.322635135,1.7396442,-1.6080343,-9.313198,9.609775920372655
2668700.881756757,1.8449322,-1.7803236,-8.901618,9.263483683865255
2668705.440878378,2.5508401,-1.7037506,-9.023657,9.530788895805918
2668710.0,2.2804415,-1.7061435,-8.963834,9.405405842230866
2668715.0861486485,2.5508401,-2.1919038,-8.877689,9.493397150911967
2668719.6452702703,2.835596,-2.28762,-9.102622,9.804669153750167
2668724.204391892,2.445552,-2.4048727,-9.061943,9.68932134997897
2668728.7635135134,3.1658175,-2.3570144,-9.227054,10.035758209723351
2668733.322635135,2.711165,-2.7877378,-9.193553,9.982149791632203
2668737.881756757,2.7997024,-2.8236315,-9.162445,9.98807422651549
2668742.440878378,2.969599,-2.8020954,-9.083479,9.958907951926415
2668747.0,2.969599,-2.8308103,-9.009299,9.89946835172415
2668752.0861486485,2.998314,-2.761416,-8.851367,9.744844941626367
2668756.6452702703,3.2184613,-2.8164527,-8.662328,9.660581003776066
2668761.204391892,3.3524642,-2.7398798,-8.683864,9.70337320220271
2668765.7635135134,3.462538,-2.8236315,-8.597719,9.689315571917206
2668770.322635135,3.4816813,-3.0892444,-8.492431,9.684364714707002
2668774.881756757,3.5917552,-2.8690968,-8.461323,9.629455268852247
2668779.440878378,3.6731138,-2.9576344,-8.394321,9.628291192254977
2668784.0,3.615684,-3.0605295,-8.368,9.615790950734436
2668788.0861486485,3.7281508,-3.0557437,-8.353642,9.644688310764343
2668792.6452702703,3.7305436,-3.0677083,-8.379964,9.672206904666888
2668797.204391892,3.8358316,-3.01985,-8.449359,9.758317764704097
2668801.7635135134,3.9171906,-3.0629225,-8.468502,9.820458368209634
2668806.322635135,3.902833,-3.0581365,-8.4541445,9.800860345163658
2668810.881756757,3.9195836,-3.0581365,-8.437394,9.793107370046405
2668815.440878378,3.8669395,-3.0653152,-8.413465,9.753756798189931
2668820.0,3.804724,-3.2208543,-8.497216,9.851523074563675
2668824.0861486485,3.644399,-3.2615337,-8.576182,9.87269688811323
2668828.6452702703,3.4457877,-3.3189635,-8.652756,9.887323094920056
2668833.204391892,3.2447834,-3.436216,-8.698221,9.899254935418753
2668837.7635135134,3.172996,-3.6061125,-8.681471,9.921687845448135
2668842.322635135,3.0389934,-3.5630403,-8.743686,9.918809501712575
2668846.881756757,2.94567,-3.3333209,-8.741293,9.808068274799366
2668851.440878378,2.8978117,-3.1179593,-8.731722,9.714008026062022
2668856.0,2.7781663,-3.0102785,-8.832224,9.735921395748527
2668861.0861486485,2.81406,-2.8403819,-8.846581,9.708176883998798
2668865.6452702703,2.88824,-2.6920216,-8.906404,9.742327381261758
2668870.204391892,2.8714898,-2.60827,-8.851367,9.664120437633889
2668874.7635135134,2.7997024,-2.629806,-8.947083,9.73676061814661
2668879.322635135,2.811667,-2.5819478,-9.021263,9.79566801581101
2668883.881756757,2.835596,-2.5939124,-9.078693,9.858582697443824
2668888.440878378,2.8499537,-2.5436614,-9.203125,9.964434714303598
2668893.0,2.811667,-2.474267,-9.145695,9.882874356137641
2668897.0861486485,2.7662017,-2.4910173,-9.071514,9.805580313585637
2668901.6452702703,2.81406,-2.5604117,-8.918368,9.6959749143921
2668906.204391892,2.8164527,-2.7207365,-8.87051,9.696430300572965
2668910.7635135134,2.943277,-2.8714898,-8.860939,9.768550206246271
2668915.322635135,2.9600272,-2.943277,-8.875296,9.80793146443657
2668919.881756757,2.9576344,-2.8978117,-8.805902,9.730818255744182
2668924.440878378,3.0796728,-2.9839563,-8.786758,9.777294917610574
2668929.0,3.280677,-3.0078855,-8.731722,9.800672724090077
2668933.0861486485,3.4266443,-3.0772798,-8.683864,9.829599996780466
2668937.6452702703,3.512789,-3.1849606,-8.700614,9.908801368433489
2668942.204391892,3.615684,-3.228033,-8.624041,9.892797936207229
2668946.7635135134,3.5223608,-3.2591407,-8.671899,9.91114806538446
2668951.322635135,3.4505734,-3.1873536,-8.667113,9.85822131598746
2668955.881756757,3.4218585,-3.0748868,-8.600112,9.753254371715139
2668960.440878378,3.4505734,-2.837989,-8.638398,9.725356464382813
2668965.0,3.3931437,-2.7757733,-8.667113,9.712733360728667
2668970.0861486485,3.3189635,-2.7518444,-8.717364,9.725255853942333
2668974.6452702703,3.3859649,-2.8188457,-8.703007,9.754638908052389
2668979.204391892,3.4433947,-2.7494514,-8.700614,9.752801343098609
2668983.7635135134,3.5750046,-2.811667,-8.650363,9.773172936190129
2668988.322635135,3.7185793,-2.8595252,-8.64797,9.83829769323553
2668992.881756757,3.7257578,-2.938491,-8.530717,9.76161529028013
2668997.440878378,3.7449012,-2.9552414,-8.497216,9.744763541548425
2669002.0,3.771223,-3.0437791,-8.391929,9.690778424170412
2669007.0861486485,3.7329366,-3.0389934,-8.360821,9.647467249952399
2669011.6452702703,3.5917552,-3.1107805,-8.291427,9.556433562382795
2669016.204391892,3.4051082,-3.1610315,-8.305784,9.516981131238808
2669020.7635135134,3.2136755,-3.0892444,-8.320142,9.439062669693195
2669025.322635135,3.1466742,-3.1107805,-8.305784,9.410874650890952
2669029.881756757,3.101209,-3.1634245,-8.31057,9.417554117380014
2669034.440878378,2.969599,-2.9360983,-8.348856,9.335019440622492
2669039.0,2.9073834,-2.8499537,-8.353642,9.292924673691447
2669043.0861486485,2.8786685,-2.763809,-8.368,9.27085737790056
2669047.6452702703,2.7733805,-2.7949166,-8.375178,9.254555890501704
2669052.204391892,2.7446656,-2.6393776,-8.511574,9.324505098324583
2669056.7635135134,2.656128,-2.6010911,-8.511574,9.288034389490557
2669061.322635135,2.5484471,-2.6010911,-8.566611,9.308441413970366
2669065.881756757,2.2014754,-2.4000869,-8.638398,9.23194622334645
2669070.440878378,1.7133222,-2.2445478,-8.827438,9.26807042654196
2669075.0,1.304135,-2.1416528,-8.860939,9.208891614939
2669080.0861486485,1.2155973,-2.1249025,-9.203125,9.523150591894394
2669084.6452702703,0.83991075,-2.0507221,-10.14593,10.385124301822005
2669089.204391892,-1.5553902,-1.9765421,-13.622826,13.853062678469497
2669093.7635135134,-51.232162,-1.6989647,-21.8305,55.71527290156704
2669098.322635135,13.294997,1.3854938,-4.4962745,14.102943759343214
2669102.881756757,-13.266282,-1.3998512,-9.684099,16.484404597299424
2669107.440878378,6.917897,-7.420408,-3.6061125,10.766791590428843
2669112.0,-5.8698034,-3.8812969,-10.050214,12.268898036351805
2669116.0861486485,-1.7061435,-0.72983694,-8.389536,8.592316445340966
2669120.6452702703,-2.833203,0.21057591,-9.987998,10.384194022700333
2669125.204391892,-1.8018597,-0.23211208,-10.827909,10.979261710536234
2669129.7635135134,-0.4977249,-0.6173703,-10.811159,10.84020456848869
2669134.322635135,0.16989647,-0.5623334,-9.964069,9.981370381868164
2669138.881756757,-0.7633377,-0.6197632,-9.552489,9.60295980223996
2669143.440878378,-0.6101916,-0.69872916,-9.399343,9.44500953199063
2669148.0,0.21057591,-0.5527618,-9.669742,9.68781699703166
2669152.0861486485,-0.026321989,-0.110073775,-9.509417,9.510090470807134
2669156.6452702703,-0.7130866,0.09571633,-9.212696,9.240747897402256
2669161.204391892,-0.43072346,-0.16271774,-9.016478,9.028226585902077
2669165.7635135134,-0.55036885,-0.34218585,-9.320377,9.34288095017375
2669170.322635135,0.2368979,-0.8901618,-9.408915,9.453898144280414
2669174.881756757,0.27757734,-1.1868824,-9.758279,9.834111452131923
2669179.440878378,0.62454903,-1.5506045,-9.672134,9.815529120747907
2669184.0,0.598227,-1.4453164,-9.944926,10.067192666533902
2669189.0861486485,0.8710185,-1.5171037,-10.016713,10.168324158299878
2669193.6452702703,0.028714897,-1.8305746,-9.839638,10.008511571783234
2669198.204391892,0.011964541,-1.8018597,-9.820495,9.984436066886824
2669202.7635135134,0.9021264,-1.4955676,-10.021499,10.172560970313608
2669207.322635135,0.6532639,-2.0435436,-10.308648,10.529532171756168
2669211.881756757,0.20100428,-2.4383733,-10.241647,10.529833823158855
2669216.440878378,0.2392908,-2.0244002,-10.239254,10.440200128984152
2669221.0,-0.30150643,-1.5338541,-10.131573,10.251457749108033
2669225.0861486485,0.07657306,-1.0361292,-9.952105,10.006189138909747
2669229.6452702703,0.09810923,-0.89494765,-10.026285,10.066625433504354
2669234.204391892,-0.27997026,-1.2036327,-9.935354,10.011911612090358
2669238.7635135134,-0.18186101,-1.0433079,-10.081322,10.136795256334452
2669243.322635135,-0.7441944,-0.51926106,-9.813316,9.855182812575304
2669247.881756757,0.16032484,-0.7513731,-9.801352,9.83141732496534
2669252.440878378,-0.25364825,-0.78008807,-9.999963,10.03355045998441
2669257.0,-0.5001178,-0.51926106,-9.779816,9.806352576578368
2669261.0861486485,-0.8351249,-0.45225963,-9.612311,9.65911461430336
2669265.6452702703,-0.7776951,-0.7441944,-9.662563,9.722332986609972
2669270.204391892,-0.2680057,-0.9475916,-9.588383,9.638819712512111
2669274.7635135134,-1.7396442,-0.77290934,-9.703242,9.888207931724377
2669279.322635135,-1.304135,-0.859054,-9.655384,9.780857940927115
2669283.881756757,-1.040915,-0.94280577,-9.370628,9.475286585193837
2669288.440878378,-0.74658734,-0.89734054,-9.624276,9.694807951947876
2669293.0,-1.0074143,-1.0480938,-9.652991,9.76184508336021
2669298.0861486485,-1.301742,-1.0792016,-9.507024,9.656226678396823
2669302.6452702703,-0.48576033,-1.1222739,-9.763065,9.839354653586176
2669307.204391892,-1.040915,-0.7441944,-9.856388,9.939100248451082
2669311.7635135134,-1.6271775,-0.5001178,-10.468973,10.606470671486916
2669316.322635135,-3.0964231,0.031107806,-11.864038,12.261492624279139
2669320.881756757,-1.8162172,-0.5910483,-10.248825,10.425276825635553
2669325.440878378,5.659228,-2.2110472,-9.708028,11.452571716666778
2669330.0,8.466109,3.7688303,-10.607761,14.085584008595458
2669335.0861486485,17.102114,6.8293595,-6.094737,19.39763577213484
2669339.6452702703,-11.213167,-2.9025974,-5.491724,12.818705797722005
2669344.204391892,-26.793392,-29.779741,-15.573046,42.9795136153361
2669348.7635135134,15.9774475,-6.1593456,-10.722621,20.203736484747978
2669353.322635135,1.483603,56.448704,-9.794173,57.31128236128689
2669357.881756757,5.056215,10.418722,-4.63267,12.473039307578928
2669362.440878378,-56.927284,-76.97746,-35.419827,102.08236457086105
2669367.0,29.066654,56.71192,3.4673238,63.82111389795827
2669371.0861486485,72.88798,22.514872,16.30049,78.00822433498203
2669375.6452702703,-78.40124,-70.437645,-30.65076,109.76194857627677
2669380.204391892,30.251144,78.36774,-38.24585,92.30048444205933
2669384.7635135134,-71.62213,-46.345844,-55.62315,101.84106037218847
2669389.322635135,53.14649,31.009695,61.586277,87.0575677240862
2669393.881756757,72.13422,-61.083763,33.199207,100.18362711879331
2669398.440878378,-66.22613,76.97507,24.821636,104.53313020281318
2669403.0,78.37013,47.793552,26.807749,95.62821913766149
2669408.0861486485,-78.40124,-12.254083,-49.999813,93.791781536249
2669412.6452702703,78.37013,77.24068,33.797436,115.10980237691922
2669417.204391892,-78.40124,-57.422615,-55.915085,112.11872224358004
2669421.7635135134,78.37013,74.42662,42.478905,116.12775900205914
2669426.322635135,-78.40124,-19.770206,-54.517624,97.51813577702053
2669430.881756757,78.37013,35.304966,57.88684,103.6301314563658
2669435.440878378,-56.412807,74.67548,-16.889145,95.10034345721719
2669440.0,44.32623,-78.40124,74.905205,117.14247238146599
2669444.0861486485,76.46777,78.36774,73.60107,131.93157327427502
2669448.6452702703,-78.40124,-78.40124,-57.848553,125.05984148106462
2669453.204391892,78.37013,39.049866,29.645739,92.44262626997882
2669457.7635135134,-78.40124,-52.28504,-78.36774,122.56419752132676
2669462.322635135,78.37013,78.36774,-56.975143,124.61760256398351
2669466.881756757,-78.40124,-73.06027,5.518046,107.30799745437717
2669471.440878378,78.37013,20.117178,46.577957,93.35997110750641
2669476.0,43.120205,78.36774,38.834507,97.51396661957031
2669480.0861486485,-78.25767,-78.40124,-30.763226,114.96692316181023
2669484.6452702703,78.37013,39.877815,11.14138,88.63547683459217
2669489.204391892,-78.40124,-40.677044,-58.712395,106.05904802868805
2669493.7635135134,78.37013,13.716149,-7.336656,79.89891451621503
2669498.322635135,2.8834543,76.84824,2.761416,76.95187923711055
2669502.881756757,-73.31152,-78.40124,-19.901817,109.16691677495288
2669507.440878378,78.37013,45.50115,26.467957,94.40754564807439
2669512.0,-78.40124,-18.714933,-43.687325,91.68198032540371
2669517.0861486485,49.34416,-56.09934,-20.837444,77.56404545273755
2669521.6452702703,53.80693,78.36774,7.6070547,95.36537982906214
2669526.204391892,-77.73362,-61.569527,-30.684261,103.80195665990237
2669530.7635135134,78.37013,6.7408223,7.922919,79.05750190195512
2669535.322635135,-42.888092,60.64347,-11.871217,75.21931056651911
2669539.881756757,-27.630909,-78.40124,-14.996355,84.46959351737112
2669544.440878378,78.37013,55.08235,31.213093,100.74819964826195
2669549.0,-78.40124,-9.274912,-43.450424,90.11502522845522
2669553.0861486485,13.905189,-76.7621,-27.45144,82.70039803779255
2669557.6452702703,73.21102,78.36774,10.232075,107.73138577477609
2669562.204391892,-78.40124,-42.35926,-35.52272,95.93187675368183
2669566.7635135134,68.49939,-32.318615,-11.959755,76.67916956742783
2669571.322635135,22.69434,78.36774,6.6857853,81.86107417949569
2669575.881756757,-65.96769,-75.36464,-27.114042,103.76288527138914
2669580.440878378,78.37013,-6.2407045,8.784366,79.1074506914183
2669585.0,-29.43277,75.6494,-7.138045,81.48663299373048
2669590.0861486485,-32.488514,-78.40124,-13.974584,86.00899356136458
2669594.6452702703,78.37253,10.217717,22.737413,82.24138343453104
2669599.204391892,-65.5609,56.360165,-22.890558,89.43532553297153
2669603.7635135134,-28.410997,-78.40124,-8.638398,83.83651414555602
2669608.322635135,78.37253,27.882166,29.231766,88.17122423405048
2669612.881756757,-78.40124,14.95089,-41.330307,89.88035281441628
2669617.440878378,-18.939867,-74.0964,-14.778601,77.89353055584841
2669622.0,78.37013,49.530804,28.82497,97.08788140959827
2669627.0861486485,-78.40124,-20.890087,-42.28747,91.4952473487343
2669631.6452702703,-12.203832,-56.94882,-25.240395,63.47581550978805
2669636.204391892,77.48236,69.664734,28.34639,107.98244811307278
2669640.7635135134,-78.40124,-45.43175,-41.296806,99.58024165165365
2669645.322635135,-7.5568037,-45.17332,-21.536173,50.61166732551559
2669649.881756757,72.761154,76.28113,25.479685,108.45372595345833
2669654.440878378,-78.40124,-66.975105,-45.721294,112.79563754123234
2669659.0,7.083008,-35.673473,-31.1437,47.882102375520155
2669663.0861486485,63.395313,78.00402,22.88338,103.08851500896097
2669667.6452702703,-78.40124,-73.71832,-44.161118,116.32432884040176
2669672.204391892,7.111723,-32.1224,-29.148014,43.954884892727506
2669676.7635135134,64.11319,78.36774,22.177473,103.65251619400964
2669681.322635135,-78.40124,-75.42925,-46.544456,118.33305782170947
2669685.881756757,-0.87819725,-45.273823,-30.33011,54.50142981663267
2669690.440878378,62.83059,78.36774,22.682375,102.97415135895184
2669695.0,-78.40124,-76.27155,-48.90147,119.81426267811776
2669700.0861486485,-10.937983,-32.507656,-24.699596,42.26650225989656
2669704.6452702703,69.351265,78.36774,24.18273,107.40533068735799
2669709.204391892,-78.40124,-74.11315,-44.275978,116.61850481084288
2669713.7635135134,-13.831009,-31.031233,-23.907545,41.54280851585982
2669718.322635135,75.80972,76.21891,28.767542,111.28345501820233
2669722.881756757,-78.40124,-66.34098,-40.66508,110.46053047267337
2669727.440878378,-12.677627,-25.596937,-25.305002,38.16108667678506
2669732.0,77.23829,68.21463,32.65841,108.09977304272707
2669736.0861486485,-76.73338,-52.493225,-37.13793,100.11381583882378
2669740.6452702703,-16.84368,-3.2304258,-16.219131,23.6051989440222
2669745.204391892,78.37253,50.55497,36.506207,100.15368989622225
2669749.7635135134,-70.88512,-22.34019,-31.514599,80.72765496892191
2669754.322635135,-19.832422,-0.60301286,-9.090658,21.824954748369432
2669758.881756757,78.37253,14.0463705,34.48659,86.76911243439262
2669763.440878378,-59.91842,21.079128,-31.435633,70.87133210718896
2669768.0,-18.712542,-6.4417086,-0.19621846,19.79124401024662
2669772.0861486485,78.37253,-28.32964,31.380596,89.04809805069233
2669776.6452702703,-32.026684,60.449646,-28.714897,74.19173471001861
2669781.204391892,-33.71129,-31.488277,5.8195524,46.49548206040211
2669785.7635135134,73.17513,-60.89951,23.383497,98.03131081805451
2669790.322635135,-14.132515,77.267006,-23.058062,81.86325439185218
2669794.881756757,-44.90531,-61.954784,-1.3496002,76.52910261712596
2669799.440878378,52.576977,-75.63743,10.763301,92.74269769572173
2669804.0,2.6656997,78.36774,-16.424921,80.11483419101872
2669809.0861486485,-56.333843,-76.06337,-15.40315,95.89783706021763
2669813.6452702703,25.29304,-78.40124,-0.21536173,82.38045087673379
2669818.204391892,21.72282,78.36774,-6.0779867,81.54952791883824
2669822.7635135134,-66.95117,-78.40124,-45.359966,112.63543009829394
2669827.322635135,1.5936768,-78.40124,-17.94681,80.44490181768238
2669831.881756757,37.20972,78.36774,5.498903,86.92700310829431
2669836.440878378,-73.70875,-78.40124,-63.18713,124.78921290615227
2669841.0,-28.542608,-76.297874,-31.292059,87.26533678856124
2669845.0861486485,63.598713,78.36774,18.846544,102.67176432061497
2669849.6452702703,-77.267006,-78.40124,-61.47381,126.07923685388383
2669854.204391892,-43.95772,-63.11295,-37.77684,85.68906141209915
2669858.7635135134,75.7164,78.36774,29.899387,112.99756300311687
2669863.322635135,-78.40124,-74.694626,-54.108437,121.05273454738825
2669867.881756757,-46.510956,-27.204971,-37.937164,65.89846650346026
2669872.440878378,78.37253,67.03014,42.450188,111.52269539540302
2669877.0,-66.84589,-50.954586,-42.66316,94.25968420013454
2669882.0861486485,-39.96635,8.540289,-32.56748,52.25788382700184
2669886.6452702703,78.37253,33.26142,49.54995,98.507730986049
2669891.204391892,-53.498245,-8.7053995,-33.598824,63.770895969224085
2669895.7635135134,-36.2047,27.659624,-23.036526,51.05405598050024
2669900.322635135,78.37013,-8.0114565,50.437717,93.5415629954962
2669904.881756757,-36.00609,27.92763,-28.844114,53.92934217056607
2669909.440878378,-32.32819,43.687325,-8.339285,54.98397865417662
2669914.0,78.37253,-42.02186,45.02496,99.67616164089637
2669919.0861486485,-15.1327505,61.552776,-22.502907,67.26161754263777
2669923.6452702703,-35.204464,46.487026,8.6048975,58.94439865532159
2669928.204391892,77.59004,-67.051674,35.36718,108.47570564212191
2669932.7635135134,-2.7135577,76.67356,-16.520638,78.48012282350145
2669937.322635135,-39.482983,34.654095,21.177237,56.64174797621877
2669941.881756757,71.47856,-76.40795,20.854195,106.68766007357236
2669946.440878378,9.325163,78.36774,-12.936061,79.97376452237252
2669951.0,-42.59855,19.64099,32.306652,56.95721827592798
2669955.0861486485,66.64728,-78.40124,8.786758,103.27546408071262
2669959.6452702703,10.30147,78.36774,-12.244511,79.98469232607962
2669964.204391892,-54.596592,-4.7475295,40.5574,68.1779259667514
2669968.7635135134,51.05987,-78.40124,-9.0978365,94.00337965698485
2669973.322635135,19.72235,78.36774,-15.778836,82.33738778796055
2669977.881756757,-60.688934,-23.460072,40.727295,76.76089008289681
2669982.440878378,35.541862,-78.40124,-27.209759,90.27928540259236
2669987.0,29.796492,78.36774,-16.733606,85.49472017602548
2669991.0861486485,-65.20675,-41.335094,34.869457,84.71357195294142
2669995.6452702703,14.864745,-78.40124,-40.696186,89.57619456306023
2670000.204391892,35.60169,78.36774,-17.109293,87.75939214992061
2670004.7635135134,-69.33691,-54.48173,22.71827,91.06034144419787
2670009.322635135,-4.3622713,-78.40124,-50.04528,93.1145203215417
2670013.881756757,42.880913,78.36774,-14.606311,90.51861517638176
2670018.440878378,-68.698,-63.050735,7.7721653,93.5693162393033
2670023.0,-17.769735,-78.40124,-54.395588,97.06388571128589
2670028.0861486485,46.27645,78.36774,-10.634084,91.63021466650154
2670032.6452702703,-74.84299,-69.535515,-8.277069,102.49473581450945
2670037.204391892,-37.64762,-78.40124,-58.994755,105.0927154597883
2670041.7635135134,52.797123,78.36774,-4.891104,94.6200917782452
2670046.322635135,-65.89829,-73.37614,-13.771186,99.58056090457765
2670050.881756757,-53.21588,-78.40124,-58.310383,111.2599886900888
2670055.440878378,63.12013,78.36774,5.106466,100.75579129228085
2670060.0,-67.06603,-76.202156,-28.157349,105.34446953550545
2670064.0861486485,-62.507545,-78.40124,-54.137154,113.9507747173504
2670068.6452702703,62.696587,78.36774,9.916211,100.84986829318464
2670073.204391892,-62.27304,-70.22228,-34.201836,99.89427263367453
2670077.7635135134,-63.881073,-78.40124,-60.198387,117.6919356564871
2670082.322635135,65.067955,78.36774,18.561789,103.53686035161654
2670086.881756757,-54.773666,-70.47353,-38.939793,97.38059558568794
2670091.440878378,-73.74943,-74.66591,-55.424538,118.6838487493831
2670096.0,70.67454,76.47256,23.357176,106.71691856430344
2670100.0861486485,-47.111576,-55.070385,-43.92183,84.74299409273253
2670104.6452702703,-73.83557,-68.958824,-58.91579,116.95332879406203
2670109.204391892,72.1055,73.47424,25.465328,106.04786656965422
2670113.7635135134,-36.60192,-41.375774,-48.403744,73.44778863249059
2670118.322635135,-77.93462,-61.270412,-53.69207,112.74177026319502
2670122.881756757,74.83341,69.07129,26.810143,105.3074836949998
2670127.440878378,-26.120985,-32.309044,-50.44729,65.35372407069288
2670132.0,-74.12272,-49.96153,-50.937836,102.8834060308182
2670137.0861486485,76.54913,56.872246,35.137463,101.63101384379566
2670141.6452702703,-17.762556,-14.457951,-51.507347,56.36973955723005
2670146.204391892,-74.72095,-49.691128,-44.857456,100.32257936081398
2670150.7635135134,75.3766,47.09004,39.92567,97.43286314026956
2670155.322635135,-7.4850163,-2.1440456,-50.502327,51.09899639876574
2670159.881756757,-65.814545,-36.0348,-39.90174,84.98358664839125
2670164.440878378,78.18109,31.315989,43.543747,94.81050523774373
2670169.0,7.630984,16.731213,-47.860554,51.27180545335361
2670174.0861486485,-62.744442,-20.088463,-34.187477,74.22395119649224
2670178.6452702703,78.36295,12.77095,45.47961,91.49996733527887
2670183.204391892,10.066964,39.681595,-38.600002,56.266623324323675
2670187.7635135134,-53.99597,-3.3333209,-24.051119,59.204156354224295
2670192.322635135,77.33879,-7.2337613,47.2384,90.91249735745619
2670196.881756757,20.679512,48.889503,-27.95156,59.99262810194893
2670201.440878378,-45.845726,14.924568,-13.316533,50.01903011448531
2670206.0,77.743195,-35.03457,45.170925,96.4978648947662
2670210.0861486485,24.790527,62.79948,-19.956854,70.40327363685189
2670214.6452702703,-44.99385,25.26193,-2.8834543,51.68100186574936
2670219.204391892,69.75088,-51.48581,46.635387,98.44202970667696
2670223.7635135134,31.13652,71.84228,-15.005927,79.7243621387975
2670228.322635135,-35.812263,43.91465,9.518989,57.459775646845245
2670232.881756757,65.65422,-64.292656,34.618202,98.19593743661464
2670237.440878378,38.011345,75.40532,-8.597719,84.88077170369262
2670242.0,-42.03143,54.041435,16.405777,70.40076223790375
2670247.0861486485,55.82176,-75.85997,19.279661,96.13796995034491
2670251.6452702703,38.190815,78.18588,-7.889418,87.37169506263082
2670256.204391892,-43.19199,52.10318,9.830067,68.3880075999951
2670260.7635135134,41.61267,-78.40124,9.370628,89.25344479167673
2670265.322635135,47.22883,78.36774,-6.692964,91.74345111767812
2670269.881756757,-47.22404,54.25919,11.933433,72.9148577214767
2670274.440878378,27.413155,-78.40124,-3.9459054,83.14929747158045
2670279.0,48.379814,78.36774,-12.170331,92.89900985495893
2670283.0861486485,-69.86334,47.776802,15.108822,85.97549411041781
2670287.6452702703,14.115765,-78.40124,-21.143736,82.42006325592405
2670292.204391892,52.35683,78.36774,-11.069592,94.89613367995013
2670296.7635135134,-68.87508,41.54806,15.314611,81.88134857738557
2670301.322635135,8.949476,-78.40124,-32.407154,85.3057511812181
2670305.881756757,66.005974,78.36774,-10.660405,103.01424906856478
2670310.440878378,-72.828156,38.193207,4.8097453,82.37593712460003
2670315.0,-3.8430104,-78.40124,-37.559086,87.01843542392328
2670320.0861486485,66.02512,78.36774,-9.105016,102.87721059633301
2670324.6452702703,-76.53238,28.07599,-6.669035,81.79206826322297
2670329.204391892,-14.469915,-78.40124,-52.28983,95.34337520286203
2670333.7635135134,69.21008,78.36774,-6.6522846,104.76540811123392
2670338.322635135,-74.158615,24.96521,-4.5178103,78.3783930619218
2670342.881756757,-26.104235,-78.40124,-50.36593,96.77247761237554
2670347.440878378,77.764725,78.36774,-2.943277,110.44237414385817
2670352.0,-76.61134,30.8398,-11.026521,83.31851442506066
2670356.0861486485,-31.059948,-78.40124,-51.93807,99.0405872287983
2670360.6452702703,78.075806,78.36774,0.30629224,110.62290888506557
2670365.204391892,-70.27253,31.65578,-14.771421,78.47618593158398
2670369.7635135134,-30.366003,-78.40124,-55.577682,100.7855510885699
2670374.322635135,78.37013,78.36774,4.2569833,110.91213574600833
2670378.881756757,-71.68435,33.83572,-12.505338,80.2488969477783
2670383.440878378,-37.470547,-78.40124,-56.991894,103.91762270050276
2670388.0,78.37253,78.36774,6.64032,111.03085148286894
2670392.0861486485,-72.22993,40.150604,-12.050685,83.51318936754205
2670396.6452702703,-33.010166,-78.40124,-57.200073,102.50987193480678
2670401.204391892,78.37253,78.36774,7.004042,111.05319777316754
2670405.7635135134,-68.45871,43.89072,-3.7449012,81.40647739572239
2670410.322635135,-36.532528,-78.40124,-53.096237,101.49182439570468
2670414.881756757,78.37253,76.61374,9.94014,110.04873919590402
2670419.440878378,-66.70232,53.27331,1.8090385,85.38452829425822
2670424.0,-35.706974,-78.40124,-53.32596,101.31831244003168
2670429.0861486485,78.37253,76.74296,8.947083,110.05355815407056
2670433.6452702703,-66.561134,55.489147,2.3498356,86.68882120262445
2670438.204391892,-32.6608,-78.40124,-46.429596,96.7945746150104
2670442.7635135134,78.37253,71.069374,3.6587565,105.86073813496233
2670447.322635135,-61.973927,61.325447,3.699436,87.2654794536146
2670451.881756757,-35.197285,-78.40124,-43.37146,96.26363200835726
2670456.440878378,78.37253,60.4975,-0.2584341,99.00640258606987
2670461.0,-61.73942,67.46804,6.0540576,91.65339064542086
2670466.0861486485,-30.79912,-78.40124,-44.560734,95.29427706284757
2670470.6452702703,78.37253,58.544888,-3.9674416,97.90555634070445
2670475.204391892,-63.725536,71.39959,4.611134,95.81287986185026
2670479.7635135134,-25.953482,-78.40124,-40.91155,92.16340154781845
2670484.322635135,78.37253,52.557835,-4.7092433,94.48151380532978
2670488.881756757,-63.1297,72.672615,1.8114314,96.28057580189854
2670493.440878378,-28.719683,-78.40124,-36.429634,91.09716163817644
2670498.0,78.37013,36.66414,-4.2115183,86.62490014163211
2670502.0861486485,-66.31227,74.30698,2.8427749,99.63395906218608
2670506.6452702703,-25.58258,-78.40124,-34.455482,89.37786679512062
2670511.204391892,78.37013,33.89076,-5.1399665,85.5387639916291
2670515.7635135134,-60.435287,71.41155,1.6199988,93.56632826122265
2670520.322635135,-22.490944,-78.40124,-27.580658,86.10046278192527
2670524.881756757,78.37013,20.576616,0.5144752,81.0280142108874
2670529.440878378,-60.13378,75.42207,1.9334698,96.47952345260009
2670534.0,-26.135342,-78.40124,-22.761341,85.7198295560184
2670539.0861486485,78.37013,14.072693,0.035893623,79.62360989581747
2670543.6452702703,-57.578156,76.3553,-2.7877378,95.67208249270989
2670548.204391892,-23.59886,-78.40124,-17.872631,83.80388753333202
2670552.7635135134,78.37013,6.008592,1.6798215,78.61807841909662
2670557.322635135,-48.609535,77.86044,-1.0504867,91.7945452203817
2670561.881756757,-24.297588,-78.40124,-22.909702,85.21726152537494
2670566.440878378,78.37013,-11.040878,4.1014442,79.25023727253753
2670571.0,-44.405197,78.36774,-1.3902797,90.08472162892352
2670575.0861486485,-28.236315,-78.40124,-24.632595,86.8953891455171
2670579.6452702703,77.44168,-13.5438595,-1.2993491,78.62784646333519
2670584.204391892,-37.80795,78.36774,-0.6389065,87.01351594681047
2670588.7635135134,-34.309517,-78.40124,-23.59168,88.77198181596087
2670593.322635135,76.711845,-20.610117,-5.941591,79.65416868983691
2670597.881756757,-24.666096,78.36774,1.304135,82.16824041372092
2670602.440878378,-42.69187,-78.40124,-32.565086,95.02544408642297
2670607.0,73.20384,-31.083876,-13.673077,80.69673210593416
2670611.0861486485,-16.69532,78.36774,1.301742,80.13695099543382
2670615.6452702703,-51.97157,-78.40124,-40.6579,102.4737203101971
2670620.204391892,61.114872,-24.926924,-25.051355,70.59709276602108
2670624.7635135134,1.6630712,78.36774,8.377571,78.83179672177914
2670629.322635135,-63.21345,-78.40124,-49.6002,112.262525067273
2670633.881756757,50.48079,-24.168371,-33.854862,65.41079419221865
2670638.440878378,18.403856,78.36774,17.16433,82.30928752410165
2670643.0,-72.49315,-78.40124,-61.480988,123.214946804015
2670648.0861486485,37.29826,-7.9516335,-47.61169,61.002145036072484
2670652.6452702703,33.20399,78.36774,29.224586,89.98935521215326
2670657.204391892,-77.32204,-78.40124,-62.378326,126.55634262201747
2670661.7635135134,18.903975,6.3172774,-54.9316,58.43585323334619
2670666.322635135,58.894253,78.36774,41.952465,106.63041324458905
2670670.881756757,-78.40124,-78.40124,-65.115814,128.58296193492276
2670675.440878378,1.2371335,2.9289196,-51.80646,51.903934022881984
2670680.0,70.478325,77.716866,53.168026,117.61779008468173
2670684.0861486485,-78.40124,-75.706825,-63.29481,126.03376832442298
2670688.6452702703,-6.7551794,20.485685,-39.968742,45.41801488074939
2670693.204391892,77.369896,65.98683,61.99307,119.09451401523336
2670697.7635135134,-78.40124,-54.797596,-52.986164,109.34836320837964
2670702.322635135,-9.4495945,21.272953,-24.400484,33.72264795339914
2670706.881756757,78.37253,21.292097,64.00311,103.40215153917451
2670711.440878378,-74.18494,2.21344,-50.698544,89.88129395573439
2670716.0,-10.71305,-2.112938,-10.746551,15.320649649735648
2670720.0861486485,78.37253,-31.899858,61.411594,104.5525622672247
2670724.6452702703,-54.28312,54.21851,-47.62605,90.3025170311271
2670729.204391892,-19.128908,-41.655743,6.5230675,46.299745741894405
2670733.7635135134,74.94827,-66.98946,48.099846,111.43799223024531
2670738.322635135,-27.901308,77.13539,-36.235806,89.67376993877642
2670742.881756757,-25.182964,-71.28473,7.0638647,75.93149933656059
2670747.440878378,56.03712,-78.40124,19.152836,98.25347005716844
2670752.0,-8.080851,78.36774,-17.226545,80.6446320484434
2670757.0861486485,-36.81489,-78.40124,-7.425194,86.9322958697591
2670761.6452702703,20.720192,-78.40124,-8.241176,81.51072182184035
2670766.204391892,22.445478,78.36774,-1.2562767,81.52840233012692
2670770.7635135134,-54.40755,-78.40124,-33.34039,101.08668327674125
2670775.322635135,-11.713285,-76.46538,-32.71823,83.99189221804998
2670779.881756757,46.900997,78.36774,16.664211,92.83804242095009
2670784.440878378,-67.159355,-78.40124,-51.916534,115.55284462152709
2670789.0,-41.095802,-42.17022,-50.320465,77.4554168195345
2670794.0861486485,71.39241,78.36774,37.214508,112.35345336925681
2670798.6452702703,-72.27061,-70.710434,-50.820583,113.16244166109331
2670803.204391892,-44.84549,13.491216,-50.906727,69.17098912370189
2670807.7635135134,78.37253,48.23385,52.864124,106.12904103359634
2670812.322635135,-63.321133,-10.504867,-44.689953,78.2119556988162
2670816.881756757,-31.294453,39.48059,-32.68234,60.05160383530909
2670821.440878378,78.37253,-31.536137,59.167046,103.13835720938056
2670826.0,-27.106863,61.56474,-38.542572,77.52760211268986
2670830.0861486485,-28.183672,2.010043,10.332577,30.085242025391153
2670834.6452702703,70.76069,-76.25241,38.133385,110.79557902571032
2670839.204391892,-6.590069,78.36774,-23.584501,82.10456972392804
2670843.7635135134,-32.727802,-61.945213,27.382048,75.22030969120559
2670848.322635135,32.12479,-78.40124,-2.7183435,84.77113870572751
2670852.881756757,6.618784,78.36774,-10.892518,79.39746798687335
2670857.440878378,-46.920143,-78.40124,2.079437,91.3924412132372
2670862.0,-15.673548,-78.40124,-34.802456,87.19876996883524
2670867.0861486485,36.46074,78.36774,3.3620358,86.49966195758039
2670871.6452702703,-60.33239,-78.40124,-41.947678,107.45398739107537
2670876.204391892,-61.837532,-55.48675,-57.27904,100.91356803093984
2670880.7635135134,63.328312,73.87147,28.064026,101.26726389144184
2670885.322635135,-50.167316,-54.517624,-56.312305,93.05915653852799
2670889.881756757,-64.31898,26.317204,-53.90504,87.95043918036804
2670894.440878378,78.30553,14.118157,52.009857,95.05842209303707
2670899.0,-16.154522,29.9281,-44.512875,56.01835227337653
2670903.0861486485,-44.93642,54.37166,-20.351683,73.41491847373045
2670907.6452702703,76.44145,-65.94855,43.579643,109.96222901165858
2670912.204391892,-2.7494514,77.17607,-22.46462,80.42614261165497
2670916.7635135134,-34.9891,5.4582233,26.522993,44.24362641195579
2670921.322635135,49.92803,-78.40124,1.9645776,92.97000687514723
2670925.881756757,8.308177,78.36774,-9.614705,79.39125285576462
2670930.440878378,-43.24224,-64.3118,23.685005,81.03627830365623
2670935.0,1.2825987,-78.40124,-43.172848,89.51141992725815
2670939.0861486485,23.716112,78.36774,0.9212696,81.88287598014635
2670943.6452702703,-55.302498,-78.40124,-21.237059,98.26562671426404
2670948.204391892,-56.400845,-64.13472,-58.3056,103.41112424469829
2670952.7635135134,56.08259,68.882256,26.357883,92.65398042717499
2670957.322635135,-29.4567,-37.310223,-44.972313,65.4389704363516
2670961.881756757,-62.624798,27.810377,-52.79952,86.50474961326304
2670966.440878378,77.71448,-20.995375,49.581055,94.54431335608741
2670971.0,7.946848,53.16324,-34.36216,63.79843666029995
2670976.0861486485,-39.121655,60.61715,-5.9009113,72.38621082935612
2670980.6452702703,59.205334,-76.44863,23.003025,99.39217153316996
2670985.204391892,22.048256,78.36774,-13.7329,82.56040702273175
2670989.7635135134,-42.70384,1.1797037,34.063046,54.6379058380124
2670994.322635135,12.986312,-78.40124,-29.693596,84.8357729752618
2670998.881756757,33.21117,78.36774,-7.473052,85.44197441346498
2671003.440878378,-50.89237,-65.50586,12.725485,83.92251775919098
2671008.0,-45.111103,-77.953766,-63.445564,110.16869264331615
2671012.0861486485,53.907433,77.798225,10.086107,95.18563284559053
2671016.6452702703,-32.435867,-45.793083,-32.57705,64.88725687983026
2671021.204391892,-69.38715,-7.65252,-64.56066,95.08531152133068
2671025.7635135134,70.28928,6.4369226,44.792847,83.59674633526237
2671030.322635135,15.843445,41.409275,-29.789312,53.41484732662815
2671034.881756757,-34.165943,66.44866,-22.950382,78.16300986285503
2671039.440878378,46.67846,-73.72789,31.114985,92.64352477844268
2671044.0,40.808655,78.36774,-12.029149,89.17146080041991
2671049.0861486485,-37.329365,32.323402,30.88048,58.23991632194563
2671053.6452702703,-2.4479449,-78.40124,-33.038883,85.1135398021885
2671058.204391892,47.08525,78.36774,-9.4495945,91.91201377667954
2671062.7635135134,-49.679165,-36.14009,14.871923,63.20838262464286
2671067.322635135,-64.90045,-78.40124,-64.5822,120.53913638557438
2671071.881756757,61.928463,78.31031,8.47568,100.19718725244172
2671076.440878378,-25.618475,-33.345173,-28.28896,50.68009551694979
2671081.0,-74.23519,-23.5175,-63.12013,100.2401469063319
2671086.0861486485,64.71141,5.0346785,39.734238,76.10337864528162
2671090.6452702703,22.581873,43.567677,-28.209993,56.60289014197515
2671095.204391892,-30.624437,64.3453,-8.937511,71.81958560540495
2671099.7635135134,26.575638,-75.26653,28.8824,84.88526434610394
2671104.322635135,53.191956,78.24331,-6.6474986,94.84507884175666
2671108.881756757,-31.30881,59.777237,30.698618,74.13477452640018
2671113.440878378,-17.183474,-78.40124,-40.382717,89.84870641555372
2671118.0,57.338863,78.36774,-5.9798775,97.28826659857485
2671122.0861486485,-40.11471,-8.712579,21.983646,46.56586392056586
2671126.6452702703,-70.507034,-78.40124,-77.030106,130.58190344525536
2671131.204391892,63.735107,77.82216,12.493373,101.36338994076795
2671135.7635135134,-11.320848,-21.552923,-17.616589,30.050529068187036
2671140.322635135,-68.03038,-31.964466,-62.10075,97.5005786658318
2671144.881756757,62.71573,2.1057591,38.18124,73.4540951803079
2671149.440878378,37.013504,45.604042,-24.177944,63.516148349556865
2671154.0,-31.229843,61.256054,-5.565904,68.98250889024537
2671159.0861486485,23.010204,-77.4034,22.356941,83.78895291480315
2671163.6452702703,53.89786,78.205025,-7.6908064,95.28984075394662
2671168.204391892,-35.709366,58.592747,21.62471,71.94370649133992
2671172.7635135134,-32.452618,-78.40124,-46.965607,96.98296288250825
2671177.322635135,63.1967,78.36774,0.70830077,100.67684566760315
2671181.881756757,-34.83835,1.3567789,9.186374,36.05469382721009
2671186.440878378,-72.51229,-78.40124,-76.46298,131.3444857809497
2671191.0,72.04807,72.35197,20.06932,104.06012473021642
2671195.0861486485,1.6558924,4.0440145,-16.731213,17.29247007711614
2671199.6452702703,-66.26202,-15.518009,-50.00221,84.44930374306577
2671204.204391892,65.3886,-24.290411,44.80481,82.90454797925757
2671208.7635135134,38.78186,55.04646,-12.483802,68.48350703612078
2671213.322635135,-41.23938,55.340786,-11.718071,70.00430162385192
2671217.881756757,18.303354,-78.40124,9.181588,81.03128259745529
2671222.440878378,55.383858,78.05188,-8.219639,96.05743159063168
2671227.0,-40.430576,50.188854,7.6764493,64.90362405428962
2671231.0861486485,-33.512676,-78.40124,-47.410686,97.55832631410387
2671235.6452702703,67.99927,78.36774,3.3763933,103.8113838890359
2671240.204391892,-26.173628,22.136793,4.113409,34.52559254536428
2671244.7635135134,-70.46875,-78.40124,-74.749664,129.22891096118158
2671249.322635135,74.972206,67.22636,19.839602,102.63442384928382
2671253.881756757,11.65107,18.34882,1.9717562,21.8246294367061
2671258.440878378,-74.96263,-34.718704,-51.471455,97.33496280254872
2671263.0,65.40057,-9.169623,37.618908,76.00328138573684
2671268.0861486485,45.498753,41.921356,-5.1758604,62.08321950667534
2671272.6452702703,-70.96169,42.060146,-27.953953,87.0978806718259
2671277.204391892,26.29806,-74.52473,9.612311,79.61105365523825
2671281.7635135134,58.293633,64.00311,-9.839638,87.12843516316492
2671286.322635135,-54.30944,61.215374,-3.7807949,81.9214971613028
2671290.881756757,-22.601017,-78.40124,-39.779705,90.77436495431358
2671295.440878378,70.99998,70.52857,-1.926291,100.09488969603784
2671300.0,-25.864944,54.024685,7.2457256,60.33375884977544
2671304.0861486485,-66.53242,-78.40124,-61.837532,119.98832321707403
2671308.6452702703,71.35891,64.74252,10.421115,96.91381516678479
2671313.204391892,16.039663,36.324345,16.829323,43.127194917718946
2671317.7635135134,-78.40124,-63.76861,-60.186424,117.62480898508392
2671322.322635135,61.69635,17.784094,28.138206,70.1032969240518
2671326.881756757,55.04646,28.690968,14.022442,63.63892898966786
2671331.440878378,-78.18827,15.194966,-49.813168,93.94490014647033
2671336.0,31.526564,-57.59969,20.610117,68.8216931533647
2671341.0861486485,67.831764,37.740948,2.2708697,77.65748008070298
2671345.6452702703,-65.101456,65.256996,-20.741728,94.48224373230103
2671350.204391892,-2.7662017,-78.40124,-10.059786,79.09238648408883
2671354.7635135134,77.302895,47.477688,-3.0366004,90.7694297392886
2671359.322635135,-36.860355,78.09495,1.9406484,86.37866115216737
2671363.881756757,-38.87997,-78.40124,-50.081173,100.82921396993248
2671368.440878378,67.743225,59.430264,-7.891811,90.46204449032777
2671373.0,-1.7659662,65.81694,16.867609,67.96693652769723
2671378.0861486485,-73.00284,-78.40124,-64.218475,124.90068699942698
2671382.6452702703,61.464237,46.726315,4.6207056,77.34695768880161
2671387.204391892,52.139076,42.22765,30.184143,73.57132701875592
2671391.7635135134,-78.40124,-49.035473,-68.96122,115.35545895084346
2671396.322635135,41.583958,-15.192574,19.70799,48.46075461165808
2671400.881756757,77.17607,13.484037,29.619417,83.75723788355343
2671405.440878378,-77.32683,35.915157,-53.97683,100.91003575974219
2671410.0,17.16433,-67.46804,21.258596,72.79064877909605
2671414.0861486485,78.37013,2.88824,18.789114,80.64273067933337
2671418.6452702703,-53.737537,77.221535,-14.008084,95.11632230029528
2671423.204391892,-11.734821,-78.40124,-14.493844,80.58865907394153
2671427.7635135134,68.22659,24.785742,-10.87816,73.39982939015773
2671432.322635135,-15.805158,78.36774,7.702771,80.3158662606026
2671436.881756757,-54.45302,-78.40124,-53.36664,109.36125495598338
2671441.440878378,54.261585,52.68705,-22.69434,78.9637759510671
2671446.0,34.472233,72.9143,28.748398,85.62301314519766
2671450.0861486485,-78.40124,-77.98966,-70.76547,131.28934931963863
2671454.6452702703,33.64668,20.811121,-8.233996,40.41040116637123
2671459.204391892,74.6707,30.00946,43.919434,91.67986589683667
2671463.7635135134,-78.40124,-20.57901,-72.2754,108.60010833916189
2671468.322635135,22.153543,-32.20376,21.012125,44.377595953432106
2671472.881756757,78.37253,-24.55363,49.135975,95.7051630998998
2671477.440878378,-68.319916,68.99711,-47.7433,108.20182440924532
2671482.0,-0.9164838,-77.65226,11.241882,78.46714813579749
2671487.0861486485,74.60848,-28.111885,12.950418,80.77386144377616
2671491.6452702703,-28.533035,78.36774,-8.389536,83.82136406259517
2671496.204391892,-38.614357,-78.40124,-28.102312,91.80175891455671
2671500.7635135134,47.360435,14.529737,-27.95156,56.880697667240284
2671505.322635135,19.846779,78.36774,20.638832,83.43475712019941
2671509.881756757,-73.0818,-78.40124,-59.190975,122.43886411686539
2671514.440878378,24.893423,28.640717,-37.69548,53.48759100353481
2671519.0,66.89853,63.78057,46.932106,103.66290078558015
2671523.0861486485,-78.40124,-61.184265,-68.86072,120.96308311235386
2671527.6452702703,23.646717,2.3354783,-11.825752,26.541855514137737
2671532.204391892,78.37253,-13.871688,63.517353,101.82893163878748
2671536.7635135134,-73.112915,43.08431,-60.284534,104.09601888434774
2671541.322635135,2.0483294,-62.98852,21.191593,66.4893444019337
2671545.881756757,76.223694,-69.53791,40.181713,110.7255278325107
2671550.440878378,-35.675865,78.36774,-28.994867,90.85687826771021
2671555.0,-27.45862,-78.40124,-7.9013824,83.44556363086674
2671559.0861486485,41.392525,-46.872284,-16.235882,64.60616067814435
2671563.6452702703,12.849916,78.36774,10.057393,80.04857380285488
2671568.204391892,-62.512333,-78.40124,-48.67893,111.4638256861184
2671572.7635135134,8.439787,13.134672,-54.558304,56.7481995177765
2671577.322635135,65.95573,77.180855,47.11875,111.92506108967028
2671581.881756757,-78.40124,-72.83055,-64.558266,124.97525017285164
2671586.440878378,1.1797037,16.434492,-31.706032,35.731732302015274
2671591.0,78.37013,7.1954746,71.57667,106.3807868894804
2671596.0861486485,-73.96001,23.701756,-61.349377,98.97273551322992
2671600.6452702703,-4.0176926,-37.408333,6.1928463,38.12973350237853
2671605.204391892,75.666145,-76.460594,52.68944,119.78215652386402
2671609.7635135134,-31.784998,78.36774,-33.93383,91.12240991675155
2671614.322635135,-29.844349,-78.40124,-1.2012398,83.89804871287834
2671618.881756757,36.266914,-70.60754,-12.49098,80.35383212576359
2671623.440878378,13.658719,78.36774,9.947319,80.16864993696926
2671628.0,-58.31278,-78.40124,-38.049633,104.85661312621484
2671633.0861486485,-10.875768,-15.692691,-56.269234,59.42027915920676
2671637.6452702703,62.584118,78.36774,43.23985,109.21519640859519
2671642.204391892,-78.18109,-72.08396,-56.238125,120.29591358971977
2671646.7635135134,-20.294254,15.407935,-46.570778,53.085766170471956
2671651.322635135,78.37253,15.441436,66.55634,103.97325520795528
2671655.881756757,-66.616165,22.258831,-59.25319,91.89183599194156
2671660.440878378,-12.77095,-7.449123,-2.8236315,15.051893310126179
2671665.0,74.70659,-73.62739,53.268528,117.64184299358365
2671669.0861486485,-24.400484,78.36774,-36.19513,89.70492588402688
2671673.6452702703,-20.423471,-72.90473,13.426607,76.89272787197233
2671678.204391892,33.426533,-77.36033,-10.150716,84.8822172272947
2671682.7635135134,12.536446,78.36774,8.068886,79.77325411627328
2671687.322635135,-53.931362,-78.40124,-26.34831,98.73995989754475
2671691.881756757,-21.055199,-43.95772,-55.89594,74.16170616303
2671696.440878378,60.892334,78.36774,36.728745,105.82239707146205
2671701.0,-72.93345,-71.789635,-53.079487,115.28430839675838
2671706.0861486485,-48.611927,9.597955,-55.020134,74.0436042627134
2671710.6452702703,78.37253,22.383263,61.67242,102.2093504029082
2671715.204391892,-55.699722,23.12985,-61.650883,86.24546577403054
2671719.7635135134,-22.754164,15.982233,-9.679314,29.4427048777075
2671724.322635135,75.49386,-72.89037,55.302498,118.61996131122496
2671728.881756757,-11.844895,78.36774,-33.48157,86.03964051490176
2671733.440878378,-25.190144,-61.050262,31.064734,72.98421434461109
2671738.0,32.457405,-78.40124,-10.538367,85.50610944194756
2671742.0861486485,15.5251875,78.36774,5.534796,80.08225824974825
2671746.6452702703,-50.971336,-78.40124,-8.224425,93.87477133790058
2671751.204391892,-29.913744,-62.05289,-61.067013,92.0574457292391
2671755.7635135134,58.678894,78.36774,29.164764,102.15330994611251
2671760.322635135,-69.466125,-67.97056,-56.884212,112.61151417190948
2671764.881756757,-66.08255,10.918839,-64.28787,92.83886410737327
2671769.440878378,78.37253,14.032013,57.22161,98.04827126688755
2671774.0,-42.995773,30.787155,-65.14692,83.90832255710963
2671778.0861486485,-34.697166,29.552416,-16.745571,48.55566669282436
2671782.6452702703,73.182304,-74.4673,48.09506,114.9528737546044
2671787.204391892,-3.596541,78.36774,-24.67806,82.24016309100973
2671791.7635135134,-29.045118,-52.07686,36.04916,69.67897935388494
2671796.322635135,29.092978,-78.40124,-16.429707,85.22377059572015
2671800.881756757,21.703676,78.36774,5.9942346,81.53823074521799
2671805.440878378,-42.012287,-78.40124,8.341678,89.33851512289452
2671810.0,-33.582073,-67.55658,-62.10793,97.71920024825536
2671815.0861486485,58.408493,78.02316,28.121456,101.43954770441647
2671819.6452702703,-56.288376,-52.71098,-46.886642,90.25068356147747
2671824.204391892,-67.08279,12.9599905,-62.928696,92.8874741189823
2671828.7635135134,78.37253,-5.3960075,56.26684,96.62984859310582
2671833.322635135,-15.582618,45.05128,-46.06109,66.2877049335729
2671837.881756757,-33.847687,31.677317,-11.454851,47.752821267446166
2671842.440878378,62.75162,-77.776695,34.926888,105.86249384513842
2671847.0,11.607997,78.36774,-14.268911,80.4975160373631
2671851.0861486485,-37.66437,-53.077095,34.941242,73.86929790947312
2671855.6452702703,8.542682,-78.40124,-32.935986,85.46643214199901
2671860.204391892,26.453598,78.36774,5.805195,82.91559448524282
2671864.7635135134,-54.173046,-70.315605,-13.673077,89.81066893238281
2671869.322635135,-52.37358,-56.979927,-62.512333,99.48615853496716
2671873.881756757,66.269196,56.14959,35.247536,93.73778101558523
2671878.440878378,-29.045118,-0.5647263,-42.443012,51.43293753092448
2671883.0,-57.611656,34.723488,-53.28767,85.81607833021374
2671888.0861486485,73.92411,-55.43411,45.876835,103.1620016304522
2671892.6452702703,8.341678,73.337845,-22.979097,77.30499337064275
2671897.204391892,-31.971645,3.4768956,16.39142,36.09644770106505
2671901.7635135134,27.286331,-78.40124,-10.571868,83.6843037014026
2671906.322635135,27.298296,78.36774,-4.9820347,83.13555380800214
2671910.881756757,-45.843334,-62.26586,17.52566,79.28302057950843
2671915.440878378,-38.32721,-77.343575,-58.219456,104.11776350412383
2671920.0,52.840195,74.546265,19.844387,93.50417920335978
2671925.0861486485,-30.277466,-22.2014,-30.327717,48.26383250191851
2671929.6452702703,-68.604675,15.108822,-66.53002,96.75288882138719
2671934.204391892,77.19761,-31.698854,48.494675,96.51954122342812
2671938.7635135134,12.974348,63.019627,-25.687868,69.27967707509654
2671943.322635135,-36.388954,34.309517,-2.2995846,50.065826861442744
2671947.881756757,27.27676,-78.40124,2.5580187,83.05010252434822
2671952.440878378,32.510048,78.36774,-9.968855,85.42706809718409
2671957.0,-40.172142,-43.33078,26.69289,64.83724134190676
2671961.0861486485,-36.62346,-78.40124,-53.751896,101.86902659544764
2671965.6452702703,58.32235,77.7073,10.148323,97.68781624401699
2671970.204391892,-30.15782,-24.757027,-18.748434,43.28866214707362
2671974.7635135134,-73.82121,-14.211481,-69.6073,102.45346968925679
2671979.322635135,71.41395,-12.938454,43.203957,84.46264113186649
2671983.881756757,17.793665,54.92442,-22.73502,62.04987962010099
2671988.440878378,-32.33776,46.099373,-8.238783,56.91010857599745
2671993.0,21.801786,-78.40124,7.4132295,81.71308510848839
2671998.0861486485,41.777782,78.36774,-11.296919,89.52377405158747
2672002.6452702703,-39.143192,-16.716856,27.453835,50.64934166088267
2672007.204391892,-40.909157,-78.40124,-55.56811,104.44198585320154
2672011.7635135134,56.888996,78.36774,5.2476473,96.98143296931022
2672016.322635135,-27.939594,-29.492592,-9.069121,41.62550722184585
2672020.881756757,-74.823845,-23.692183,-69.32015,104.71490109775215
2672025.440878378,69.82745,-7.1141157,40.751225,81.16123307772074
2672030.0,23.357176,51.488205,-16.915468,59.01462515746436
2672034.0861486485,-31.847214,55.288143,-12.139223,64.94909184117954
2672038.6452702703,14.122944,-78.40124,8.758043,80.14309264031796
2672043.204391892,49.267586,78.36774,-11.785072,93.31498071060284
2672047.7635135134,-35.67826,-5.620941,24.929316,43.88626220790439
2672052.322635135,-47.549477,-78.40124,-55.18046,107.0167760789061
2672056.881756757,59.7892,78.06145,1.5051392,98.33922847345242
2672061.440878378,-25.111177,-21.40217,-7.4706593,33.82949661775808
2672066.0,-72.19643,-29.262873,-72.24908,106.24768139496237
2672070.0861486485,61.275196,-4.972463,38.006557,72.27636825490774
2672074.6452702703,23.472036,47.14268,-20.397148,56.47488289586442
2672079.204391892,-27.528015,61.60542,-5.5826545,67.7066127825266
2672083.7635135134,13.630005,-78.40124,1.902362,79.59994001892633
2672088.322635135,52.385544,78.36774,-6.932255,94.51880263877955
2672092.881756757,-30.385147,6.6307483,23.993689,39.2800342802585
2672097.440878378,-54.543945,-78.40124,-67.05407,116.69637814973319
2672102.0,63.782967,77.68098,12.79488,101.32280339241453
2672107.0861486485,-15.326576,-9.004513,-12.356977,21.64901999697617
2672111.6452702703,-71.55035,-20.188965,-67.46804,100.39413984060685
2672116.204391892,62.435757,-22.1344,39.683987,77.22029681203782
2672120.7635135134,31.789783,56.934464,-17.537624,67.52548962961883
2672125.322635135,-29.571558,55.974907,-1.6750357,63.32829541999601
2672129.881756757,-0.22971918,-78.40124,-5.970306,78.62856833348103
2672134.440878378,52.7373,78.36774,-6.800645,94.70466860938602
2672139.0,-25.774014,13.098779,20.646011,35.52654752681659
2672143.0861486485,-61.497738,-78.40124,-68.99472,121.19817490594751
2672147.6452702703,68.537674,74.74727,12.634555,102.19686448140766
2672152.204391892,-12.160759,-1.7683591,-11.794644,17.033049652054967
2672156.7635135134,-66.7741,-12.321084,-60.121815,90.69301064932887
2672161.322635135,55.546577,-31.315989,43.531784,77.20835189076183
2672165.881756757,41.01923,54.993813,-12.81163,69.79279734563424
2672170.440878378,-32.443047,62.639156,1.9095407,70.56813380500792
2672175.0,-8.700614,-78.40124,-16.405777,80.57049482588725
2672179.0861486485,56.664062,78.36774,-6.50871,96.92616726618022
2672183.6452702703,-24.919744,18.927902,14.694849,34.57163146685359
2672188.204391892,-65.67336,-78.40124,-70.9258,124.45968726004097
2672192.7635135134,73.71832,73.90018,16.219131,105.63468899017009
2672197.322635135,1.3759222,12.151187,-5.4079723,13.371262909949424
2672201.881756757,-70.93058,-18.116707,-53.038807,90.40175495886957
2672206.440878378,53.9194,-37.93238,40.184105,77.20705565863412
2672211.0,42.78041,58.3391,-8.691042,72.86390244575064
2672216.0861486485,-44.4722,53.141705,-9.9927845,70.01194987436406
2672220.6452702703,-10.26079,-78.40124,-23.455286,82.47538230468227
2672225.204391892,64.07729,76.10405,-4.2067323,99.57621260517224
2672229.7635135134,-23.967367,39.368122,5.2739697,46.390715311537186
2672234.322635135,-61.58867,-78.40124,-66.83153,120.02654751365382
2672238.881756757,72.84491,62.186897,13.539074,96.73105807430304
2672243.440878378,14.137301,24.400484,12.751807,30.949240390744745
2672248.0,-74.55105,-32.383224,-53.826077,97.48732644783425
2672253.0861486485,54.575054,-28.255459,33.32603,69.91016920280266
2672257.6452702703,53.086666,44.99385,3.101209,69.65815201453263
2672262.204391892,-62.19647,47.623657,-22.715876,81.56239702805408
2672266.7635135134,0.002392908,-78.40124,-12.682413,79.42038805474435
2672271.322635135,63.20149,64.82627,-4.4125223,90.64405095416353
2672275.881756757,-30.349253,56.886604,5.4319015,64.7044699090915
2672280.440878378,-46.805283,-78.40124,-55.644684,106.9290409931163
2672285.0,69.90402,53.41928,3.8884757,88.06424774645095
2672289.0861486485,11.203596,42.07211,19.143265,47.56098819456489
2672293.6452702703,-78.1787,-69.89206,-63.9409,122.8220170716293
2672298.204391892,51.08859,7.84156,15.630476,53.99857286455149
2672302.7635135134,57.86291,30.722548,18.490002,68.07254573791411
2672307.322635135,-73.79729,31.272917,-48.016094,93.43222480520213
2672311.881756757,10.153109,-69.40391,10.782444,70.96653749667597
2672316.440878378,76.19019,30.310966,6.2550616,82.23640013831498
2672321.0,-43.862007,77.144966,-5.573083,88.91726880271398
2672326.0861486485,-27.037468,-78.40124,-34.843136,89.95456206164933
2672330.6452702703,66.49413,48.475533,-8.255533,82.70127235541833
2672335.204391892,3.9722273,72.11746,19.98796,74.94147831165371
2672339.7635135134,-73.86189,-78.40124,-62.28261,124.42450215420514
2672344.322635135,54.51284,28.93026,-0.59583414,61.71681040734031
2672348.881756757,60.52861,39.829956,31.512207,79.01365207041682
2672353.440878378,-78.40124,-26.259773,-67.33404,106.63115423866859
2672358.0,25.089642,-41.071873,20.126749,52.167757405559364
2672362.0861486485,78.34381,5.9990206,30.150642,84.15938466081776
2672366.6452702703,-60.28214,70.56447,-32.19897,98.23469091121221
2672371.204391892,-4.051193,-77.39383,-1.6295704,77.51691806619188
2672375.7635135134,69.915985,14.434022,-6.3100986,71.66870512265749
2672380.322635135,-16.764713,78.36774,7.7219143,80.51202540699441
2672384.881756757,-53.067524,-78.40124,-47.77441,106.04390971609958
2672389.440878378,48.035236,42.134327,-26.288488,69.09247434160083
2672394.0,40.03814,69.47091,31.327953,86.08542635114209
2672398.0861486485,-78.40124,-73.46228,-68.142845,127.22778132558166
2672402.6452702703,26.671354,1.978935,0.13878867,26.745028888046868
2672407.204391892,77.86523,2.266084,47.456154,91.21521656017526
2672411.7635135134,-77.724045,28.212387,-59.423088,101.82371697623073
2672416.322635135,21.62471,-58.987576,17.334227,65.17390298752565
2672420.881756757,70.980835,-29.360983,26.609138,81.29201981207355
2672425.440878378,-34.934067,78.36774,-20.82548,88.29265160305522
2672430.0,-28.485178,-78.40124,-16.348349,85.00251945827891
2672435.0861486485,47.070896,12.175117,-23.634754,54.060191646414104
2672439.6452702703,18.573753,78.36774,17.030327,82.31961498294035
2672444.204391892,-73.00284,-78.40124,-60.868404,123.21173518423647
2672448.7635135134,21.990826,38.200386,-32.08411,54.518400867994764
2672453.322635135,72.210785,35.58972,47.496834,93.47178654555705
2672457.881756757,-78.40124,-15.400757,-62.84973,101.6564130332344
2672462.440878378,18.832186,-37.023075,12.581911,43.40119579465688
2672467.0,77.80062,-50.57172,43.87636,102.64292621994171
2672471.0861486485,-42.354473,78.28159,-34.843136,95.58217847669263
2672475.6452702703,-19.746277,-78.40124,-7.310334,81.17949785561552
2672480.204391892,41.904606,-14.747493,-16.879574,47.522674295769185
2672484.7635135134,18.959011,78.36774,10.275147,81.28053528783708
2672489.322635135,-69.71498,-78.40124,-53.36664,117.70697147929515
2672493.881756757,5.0873227,23.53425,-43.96251,50.12428613772504
2672498.440878378,73.06745,41.964428,45.300144,95.66592137898647
2672503.0,-78.29117,-14.642204,-54.675556,96.60909823539215
2672508.0861486485,11.959755,-41.00966,9.614705,43.78664756763927
2672512.6452702703,75.60872,-58.853573,47.934734,107.13617651641057
2672517.204391892,-20.425863,78.36774,-31.327953,86.83409002904664
2672521.7635135134,-27.403584,-78.28399,-10.461794,83.59897511371531
2672526.322635135,27.142757,-31.593565,-24.847958,48.50055281891164
2672530.881756757,32.42869,78.36774,15.00832,86.12997316292453
2672535.440878378,-75.91501,-77.188034,-52.189327,120.18655161372334
2672540.0,-7.528089,15.259575,-37.2504,40.95264403347537
2672545.0861486485,78.37253,7.0399356,57.585335,97.5083840442209
2672549.6452702703,-63.63939,40.267857,-49.669594,90.21386165700582
2672554.204391892,-7.659699,-60.727222,11.505102,62.28028462232883
2672558.7635135134,55.594433,-78.00641,25.498829,99.12583549232174
2672563.322635135,4.50106,78.36774,-11.060021,79.27222892256556
2672567.881756757,-51.861496,-78.40124,-32.703876,99.52845174280063
2672572.440878378,-7.2696548,-4.2282686,-52.124718,52.79879130097992
2672577.0,69.528336,71.31105,39.774918,107.24504399242942
2672581.0861486485,-78.40124,-42.54112,-50.315678,102.41176093101653
2672585.6452702703,-5.49651,1.4907818,-20.423471,21.202646538655316
2672590.204391892,73.378525,-67.89159,62.13186,117.70320280673472
2672594.7635135134,-15.874553,78.36774,-37.592587,88.35556973394478
2672599.322635135,-32.8307,-78.40124,2.6537352,85.03911809596404
2672603.881756757,12.799665,-61.782494,-30.220036,69.958263020272
2672608.440878378,44.46502,78.36774,20.739334,92.45950817017986
2672613.0,-76.800385,-77.45365,-51.918926,120.80124962708044
2672618.0861486485,-14.072693,14.070299,-52.096,55.76743869160256
2672622.6452702703,78.37253,2.5077677,69.37759,104.69857855599646
2672627.204391892,-56.70953,44.687557,-50.26782,87.97614603403328
2672631.7635135134,-10.31822,-45.05846,11.966933,47.7486959713717
2672636.322635135,48.477924,-78.40124,18.525894,94.02165866111176
2672640.881756757,2.6920216,78.36774,-7.1165085,78.73623274092455
2672645.440878378,-61.61499,-78.40124,-27.508871,103.44031810629906
2672650.0,-17.341406,-18.415821,-63.88347,68.7092756795018
2672654.0861486485,70.32039,73.79729,45.821796,111.76150611799135
2672658.6452702703,-78.40124,-50.107494,-47.137897,104.30482597694244
2672663.204391892,5.599405,8.401501,-30.940302,32.54598044702648
2672667.7635135134,78.18827,-55.400608,62.021786,114.14611193988327
2672672.322635135,-35.922337,75.96765,-40.002243,93.0681341120317
2672676.881756757,-24.991531,-72.85209,6.6474986,77.30583986174048
2672681.440878378,21.615139,-70.49507,-13.756828,75.00679599153536
2672686.0,22.668018,78.36774,10.157895,82.21024597692765
2672690.0861486485,-73.80207,-78.40124,-39.337017,114.63376848154644
2672694.6452702703,-24.091799,-15.328969,-55.65665,62.55441438365371
2672699.204391892,76.1543,48.724396,57.14743,106.95500422916038
2672703.7635135134,-73.345024,0.26082698,-43.45521,85.25207242301018
2672708.322635135,2.6489491,-7.7625937,-14.9915695,17.08864969384652
2672712.881756757,74.46252,-72.46444,43.17524,112.51605795761598
2672717.440878378,-11.6223545,78.36774,-20.878122,81.92971240690494
2672722.0,-46.570778,-78.1117,-11.385457,91.65098838263629
2672727.0861486485,-4.824103,-51.464275,-44.127617,67.96388859629005
2672731.6452702703,44.398018,78.36774,26.094664,93.77429372865902
2672736.204391892,-77.6738,-67.36036,-45.60883,112.4757870821027
2672740.7635135134,-17.439514,-7.9994917,-43.665787,47.69517240081992
2672745.322635135,78.37253,-14.323948,66.35295,103.68289597908667
2672749.881756757,-38.595215,61.45945,-34.505733,80.35857281625908
2672754.440878378,-16.424921,-43.538963,1.1677392,46.5487158126927
2672759.0,39.74381,-76.44863,3.8406174,86.24797855141986
2672763.0861486485,11.61039,78.36774,-0.25604117,79.22354060341178
2672767.6452702703,-70.84204,-78.40124,-30.514364,109.98397826603517
2672772.204391892,-28.844114,-39.89217,-62.62719,79.65885429159772
2672776.7635135134,72.35197,65.93419,47.21686,108.68098657123333
2672781.322635135,-73.201454,-27.288723,-44.900528,90.10651855089968
2672785.881756757,-8.638398,12.333048,-26.98004,30.897387452312337
2672790.440878378,75.66376,-62.612835,55.156532,112.63931243727407
2672795.0,-6.7216787,77.98488,-27.245651,82.88032318695575
2672800.0861486485,-32.34494,-63.79493,11.861646,72.50301292455242
2672804.6452702703,1.8568966,-77.89155,-30.133892,83.53797384096201
2672809.204391892,34.704346,78.36774,11.605604,86.49037141902058
2672813.7635135134,-77.86284,-75.30242,-39.116867,115.16599148454239
2672818.322635135,-30.12432,-21.517029,-58.78418,69.46968411272388
2672822.881756757,78.267235,18.557003,62.703762,101.98962792284262
2672827.440878378,-34.465054,32.959915,-40.358788,62.47421638451406
2672832.0,-18.446928,3.0892444,-11.500317,21.95654514491304
2672837.0861486485,46.946465,-78.40124,19.554846,93.45114772766325
2672841.6452702703,13.443357,78.36774,-10.11243,80.15290238439248
2672846.204391892,-60.91626,-69.00429,3.6037195,92.1160657270293
2672850.7635135134,-23.665861,-71.095695,-58.415672,95.01084969421088
2672855.322635135,59.49009,75.53693,31.694067,101.2393820853994
2672859.881756757,-60.329998,-39.84192,-38.07356,81.71097367575547
2672864.440878378,-32.99581,5.771694,-53.811718,63.385620792867996
2672869.0,75.556076,-42.75648,56.951214,103.82811747586476
2672873.0861486485,3.6563635,70.67215,-24.826422,74.99515323665067
2672877.6452702703,-29.528486,-18.997297,11.392635,36.91369543951987
2672882.204391892,12.459872,-78.40124,-20.105213,81.89152846033193
2672886.7635135134,32.5603,78.36774,3.7185793,84.94412069594921
2672891.322635135,-71.91646,-64.65638,-12.7589855,97.54597072470605
2672895.881756757,-45.855297,-54.76888,-68.58314,99.02517645362823
2672900.440878378,69.820274,47.178577,44.307087,95.20402695057376
2672905.0,-23.749613,13.096386,-37.326973,46.13959641407253
2672909.0861486485,-27.494514,26.10902,-31.476313,49.27867191321784
2672913.6452702703,60.571682,-72.96934,27.896523,98.85175383286962
2672918.204391892,23.921902,78.36774,-6.925076,82.22965855219745
2672922.7635135134,-49.04026,-35.369576,18.734077,63.30023418858185
2672927.322635135,-18.06167,-78.40124,-50.310894,94.89027564406025
2672931.881756757,45.474827,78.36774,19.37777,92.65506210434715
2672936.440878378,-53.208706,-37.82709,-27.793627,70.95449833433864
2672941.0,-56.180695,-13.711364,-66.12801,87.8475139089526
2672946.0861486485,75.83365,-18.468464,46.348236,90.77436650923813
2672950.6452702703,10.607761,62.014606,-22.337797,66.7631120124097
2672955.204391892,-25.259539,18.552216,5.510867,31.82135578656048
2672959.7635135134,17.410799,-78.40124,-11.988469,81.2010698471391
2672964.322635135,43.103455,78.36774,0.9954498,89.44496311111624
2672968.881756757,-59.214905,-47.518368,9.234232,76.48314397416122
2672973.440878378,-52.07686,-74.82863,-70.947334,115.51990052300104
2672978.0,66.317055,64.87413,30.997732,97.81341378499037
2672982.0861486485,-23.96976,2.268477,-35.273857,42.70761489492919
2672986.6452702703,-37.71223,31.12695,-45.714115,66.93937270477387
2672991.204391892,58.83443,-62.251503,33.08674,91.82304799456129
2672995.7635135134,34.35259,76.59938,-11.899932,84.78899597056875
2673000.322635135,-37.504047,6.0325212,28.896759,47.728058143095865
2673004.881756757,-20.208109,-78.40124,-44.098904,92.19455209986486
2673009.440878378,53.74232,78.36774,9.583597,95.50698908011083
2673014.0,-51.373344,-31.521778,-7.422801,60.728419514336295
2673018.0861486485,-65.352715,-54.36448,-73.93368,112.66171968279211
2673022.6452702703,74.61566,24.338268,38.908684,87.59984986909099
2673027.204391892,3.615684,35.34086,-27.42512,44.879692103911054
2673031.7635135134,-27.68834,35.218822,-18.38232,48.42436663091923
2673036.322635135,29.839563,-76.453415,7.4658732,82.40912235809621
2673040.881756757,44.54877,78.36774,-4.7499228,90.2699138574224
2673045.440878378,-41.875893,-0.8255533,24.639774,48.59413972455594
2673050.0,-43.71125,-78.40124,-59.085686,107.46416193406385
2673055.0861486485,65.87676,78.11888,14.27609,103.18000613607319
2673059.6452702703,-42.124756,-19.545273,-12.088972,47.98599804860631
2673064.204391892,-66.147156,-32.663197,-67.81262,100.20420208960074
2673068.7635135134,67.80544,-6.140202,40.815834,79.38017434668409
2673073.322635135,18.959011,46.73589,-19.69842,54.14531616572777
2673077.881756757,-26.633066,41.311165,-0.09332342,49.15222545804311
2673082.440878378,11.868824,-78.40124,-7.530482,79.65131245518117
2673087.0,50.435326,78.36774,-5.1830387,93.33857011760772
2673092.0861486485,-41.696423,2.7398798,25.742905,49.079484412047385
2673096.6452702703,-53.151276,-78.40124,-65.256996,115.02298944519654
2673101.204391892,67.22397,73.888214,18.288996,101.55302893246815
2673105.7635135134,-28.870436,-9.040407,-12.998277,32.92698344100889
2673110.322635135,-62.02657,-14.843209,-65.651825,91.5302046606103
2673114.881756757,59.99978,-25.118357,40.00703,76.36404852971553
2673119.440878378,23.58211,55.917477,-14.024835,62.28624360864005
2673124.0,-25.723763,43.71125,8.659934,51.45269493745712
2673128.0861486485,-5.0083566,-78.40124,-18.329676,80.6710300643009
2673132.6452702703,59.423088,78.36774,-1.0122001,98.35461661358751
2673137.204391892,-39.2748,-1.4022441,22.88338,45.476645476336365
2673141.7635135134,-65.02249,-78.40124,-69.90402,123.53643451022091
2673146.322635135,71.993034,69.78438,20.715405,102.3815639694158
2673150.881756757,-23.292568,2.526911,-20.583796,31.18688283567566
2673155.440878378,-51.777744,-0.7776951,-52.79234,73.94978530106562
2673160.0,49.01633,-40.60526,35.278645,72.77341918154269
2673165.0861486485,39.93285,59.073723,-12.644126,72.41692606364278
2673169.6452702703,-29.91853,53.96965,13.113136,63.085623514695456
2673174.204391892,-16.99922,-78.40124,-30.928337,85.97842719968521
2673178.7635135134,62.28261,78.36774,0.8159817,100.10640342782492
2673183.322635135,-38.207565,8.042564,16.1282,42.24475936922024
2673187.881756757,-65.3886,-78.40124,-74.742485,126.52613369368727
2673192.440878378,77.01335,60.030884,26.853214,101.27121118152856
2673197.0,-9.5405245,8.748472,-15.80755,20.431250746647507
2673201.0861486485,-50.205605,5.6999073,-45.532257,68.01674899727763
2673205.6452702703,44.189835,-45.91512,28.781898,69.92379719683443
2673210.204391892,40.966587,65.40057,-10.411543,77.87102178855956
2673214.7635135134,-36.941715,45.039314,11.756357,59.42593745699995
2673219.322635135,-21.07434,-78.40124,-38.875183,90.01201082775948
2673223.881756757,68.327095,78.36774,1.4166015,103.98125477054231
2673228.440878378,-31.813713,14.742706,12.316298,37.16383876126912
2673233.0,-65.41254,-78.40124,-70.16964,123.89242592071075
2673237.0861486485,76.826706,54.38841,24.386126,97.2374672563329
2673241.6452702703,-1.6989647,17.953989,-3.5630403,18.38280332929097
2673246.204391892,-52.459724,-6.953791,-42.23483,67.70641562331267
2673250.7635135134,38.298492,-36.80532,21.859215,57.43893583791999
2673255.322635135,49.87299,55.350357,-9.576418,75.11780703187675
2673259.881756757,-51.102943,50.174496,-1.4477094,71.63160402100537
2673264.440878378,-16.896324,-78.40124,-32.476547,86.52725757409503
2673269.0,65.5274,67.9897,2.6752713,94.46478991337779
2673274.0861486485,-25.915195,42.28747,9.995177,50.59378434304212
2673278.6452702703,-59.049793,-78.40124,-61.100513,115.61533278827518
2673283.204391892,72.40222,41.947678,16.95854,85.3772875503297
2673287.7635135134,15.166251,32.136757,14.998748,38.571346378361675
2673292.322635135,-74.04136,-35.163784,-56.920105,99.7923496519612
2673296.881756757,42.01468,-24.017618,14.431629,50.501002222628856
2673301.440878378,50.61958,39.660057,-0.45465255,64.30761004391992
2673306.0,-54.601376,50.887585,-15.580225,76.24696701689993
2673310.0861486485,-11.081557,-78.40124,-18.210032,81.24752675942126
2673314.6452702703,70.980835,44.53202,-2.5197322,83.83155010458378
2673319.204391892,-17.415585,67.980125,20.765656,73.18341659842199
2673323.7635135134,-58.92297,-78.40124,-56.254875,113.06317609382874
2673328.322635135,64.74252,42.69905,4.4723454,77.68400504756305
2673332.881756757,24.235373,40.50715,25.884087,53.83464001361203
2673337.440878378,-78.40124,-48.35589,-70.63625,116.07982746925583
2673342.0,39.93524,-12.524481,15.278718,44.554744325385656
2673347.0861486485,56.022766,19.248552,9.466345,59.98890524127344
2673351.6452702703,-63.704,56.599457,-34.505733,91.9366290363212
2673356.204391892,1.0050215,-74.73291,-1.9215052,74.76436375384459
2673360.7635135134,64.414696,27.934809,-10.827909,71.04118684221976
2673365.322635135,-13.122708,78.06384,20.983412,81.89305318499615
2673369.881756757,-50.947407,-78.40124,-52.07925,107.02635653951671
2673374.440878378,60.34675,43.055595,-13.828616,75.41051065230882
2673379.0,32.23726,53.90265,35.37436,72.0838536340816
2673384.0861486485,-78.40124,-64.20412,-76.96071,127.24729601141276
2673388.6452702703,38.042454,5.6137624,9.028442,39.50006834896788
2673393.204391892,66.161514,4.194768,30.153034,72.82957828211815
2673397.7635135134,-67.14979,49.547554,-44.546375,94.59616234323484
2673402.322635135,7.0662575,-66.87221,13.608468,68.60768810160731
2673406.881756757,60.727222,4.3024487,-10.086107,61.70928707308864
2673411.440878378,-18.099957,78.36774,11.950183,81.31370112006302
2673416.0,-45.795475,-78.40124,-38.24585,98.5227131489776
2673420.0861486485,57.556618,44.82874,-28.477999,78.31587727038193
2673424.6452702703,39.559555,66.4367,38.36789,86.3185291912468
2673429.204391892,-78.40124,-72.97413,-76.92721,131.8702912758541
2673433.7635135134,33.72086,19.609882,-2.1201165,39.065826052537226
2673438.322635135,75.76665,-15.896089,47.26951,90.70654592342561
2673442.881756757,-74.89563,41.440384,-60.29889,104.70251646639854
2673447.440878378,16.75275,-60.645863,27.963524,68.85153597470317
2673452.0,52.115147,-20.263145,-2.6896286,55.9805117351438
2673457.0861486485,-14.268911,78.36774,8.078458,80.0647611467822
2673461.6452702703,-46.108948,-78.40124,-33.452854,96.91172766982136
2673466.204391892,48.22906,36.360237,-44.048653,74.75555427053014
2673470.7635135134,43.448032,72.59605,39.679203,93.44708187520214
2673475.322635135,-78.40124,-75.98201,-75.77861,132.90003013810718
2673479.881756757,35.393505,24.934103,-7.9372764,44.01602032498657
2673484.440878378,78.37253,-23.833364,57.324505,99.98190622133797
2673489.0,-69.033005,50.650684,-58.540104,103.72073729649581
2673493.0861486485,9.291662,-64.890884,23.996082,69.80668850743761
2673497.6452702703,51.08141,-34.472233,-5.620941,61.88085546693638
2673502.204391892,-8.652756,78.36774,7.44673,79.19486502795516
2673506.7635135134,-49.65045,-78.40124,-34.56795,99.02961570127695
2673511.322635135,34.211407,33.51507,-49.9376,69.19135914104123
2673515.881756757,57.49201,68.79372,43.591606,99.6901963030354
2673520.440878378,-78.40124,-65.936584,-75.513,127.26586624907189
2673525.0,31.040804,-0.16750357,-3.1299238,31.19865371143738
2673529.0861486485,72.41897,-48.231457,60.186424,105.79785581055755
2673533.6452702703,-52.560226,66.25723,-42.25158,94.53990637260213
2673538.204391892,-12.40005,-71.320625,16.010948,74.14002459031039
2673542.7635135134,37.84863,-49.72463,-17.350977,64.85456055180953
2673547.322635135,20.105213,78.36774,16.049234,82.48212033204362
2673551.881756757,-71.73221,-78.40124,-53.67532,119.05168777520166
2673556.440878378,24.242552,33.2016,-59.164654,72.04515148830225
2673561.0,73.01002,51.849533,56.218983,105.73273448782443
2673566.0861486485,-77.97052,-26.546923,-67.03253,106.1955798893684
2673570.6452702703,26.154486,-17.71709,14.364627,34.70295268188897
2673575.204391892,65.10625,-75.89826,44.728237,109.54444232921297
2673579.7635135134,-15.101643,78.36774,-15.955912,81.38890232555536
2673584.322635135,-39.080975,-78.40124,-8.423037,88.00582135740564
2673588.881756757,17.793665,-30.423433,-45.60883,57.63996151635265
2673593.440878378,45.967766,78.36774,29.987925,95.6755654780466
2673598.0,-77.805405,-77.51826,-62.103146,126.17274834027727
2673602.0861486485,16.525423,17.571125,-41.493027,47.99484689752935
2673606.6452702703,77.6044,-10.780051,68.264885,103.91701940965122
2673611.204391892,-59.444622,42.344902,-51.579132,89.37091623109787
2673615.7635135134,-3.6731138,-51.868675,22.34019,56.59448118394121
2673620.322635135,34.5177,-78.11409,0.6389065,85.40310808942401
2673624.881756757,18.320105,78.36774,4.9652843,80.63363422355742
2673629.440878378,-65.77865,-78.40124,-37.5543,109.0133509156108
2673634.0,-8.281855,-3.6420062,-70.61233,71.18956720918285
2673638.0861486485,72.5434,68.4611,52.409473,112.67750421848955
2673642.6452702703,-77.23589,-43.443245,-60.021313,107.02923084123371
2673647.204391892,11.909504,3.8166883,-3.441002,12.970886240707568
2673651.7635135134,64.65877,-71.47856,54.223297,110.58981424677731
2673656.322635135,-8.037778,78.16673,-25.230824,82.5302249711532
2673660.881756757,-37.946735,-77.037285,7.7697725,86.22683655355335
2673665.440878378,2.3043704,-65.570465,-47.65955,81.09394989429929
2673670.0,46.77896,78.36774,25.314575,94.71325925560699
2673675.0861486485,-77.8413,-77.491936,-53.72557,122.2730755421773
2673679.6452702703,-6.8891826,16.044449,-53.340313,56.125521570384656
2673684.204391892,78.37253,-6.2239537,71.993034,106.60200749885435
2673688.7635135134,-44.613377,44.38605,-45.324074,77.55479692387897
2673693.322635135,-13.512752,-29.40166,15.374434,35.82492565504442
2673697.881756757,30.739298,-78.40124,-0.46422416,84.21326723943878
2673702.440878378,18.446928,78.36774,0.43311638,80.51074099238814
2673707.0,-62.16775,-78.40124,-19.109764,101.86641573028766
2673712.0861486485,-24.34784,-42.222862,-70.614716,85.80224649679809
2673716.6452702703,72.217964,73.08659,44.761738,112.07451606370664
2673721.204391892,-76.3218,-49.26519,-51.363773,104.35666379188072
2673725.7635135134,-8.382357,28.836935,-26.556494,40.08840359308051
2673730.322635135,71.13876,-62.459686,54.00315,108.98750276742145
2673734.881756757,-4.8552103,75.85997,-26.434456,80.48036145218323
2673739.440878378,-27.355726,-58.138096,22.196615,67.9784059018047
2673744.0,1.4548881,-78.40124,-41.313557,88.63228037748647
2673748.0861486485,39.566734,78.36774,17.824772,89.58097794167207
2673752.6452702703,-75.91979,-77.00617,-42.500443,116.18972582336723
2673757.204391892,-33.759148,-10.33497,-60.131386,69.73001692863555
2673761.7635135134,76.881744,30.275074,57.87009,100.87779727370693
2673766.322635135,-37.559086,22.328226,-42.25397,60.783489519962345
2673770.881756757,-18.693398,18.631182,3.0629225,26.569636161312676
2673775.440878378,43.663395,-78.40124,4.9628916,89.87700923760745
2673780.0,14.828852,78.36774,-3.1969252,79.82241449041678
2673785.0861486485,-50.0046,-72.923874,7.970777,88.7799791975173
2673789.6452702703,-25.58258,-70.16485,-65.22589,99.15639818625424
2673794.204391892,57.070858,77.661835,27.214544,100.14526875270406
2673798.7635135134,-60.6004,-47.6763,-42.74691,88.1631236765015
2673803.322635135,-34.627773,17.810415,-38.355923,54.65775676510775
2673807.881756757,75.82647,-43.960114,46.30995,99.12999871157265
2673812.440878378,1.4142087,70.42807,-20.095642,73.25263037983156
2673817.0,-29.39209,-22.584267,20.174608,42.20140848892431
2673821.0861486485,9.090658,-78.40124,-31.146091,84.84971114264825
2673825.6452702703,29.844349,78.36774,9.267733,84.36870696473123
2673830.204391892,-64.15626,-63.905003,-17.51848,92.23216492703622
2673834.7635135134,-43.26617,-47.19772,-61.796852,88.98560083955833
2673839.322635135,62.543438,41.9405,36.386562,83.63413819302312
2673843.881756757,-19.552452,17.595053,-28.724468,38.94841885324919
2673848.440878378,-22.959953,29.643345,-15.577831,40.60241573128125
2673853.0,43.77825,-77.077965,7.212225,88.93572988992865
2673857.0861486485,24.288017,78.36774,2.4551237,82.0818985823439
2673861.6452702703,-48.91822,-45.01539,12.067435,67.5647879616278
2673866.204391892,-27.470585,-77.02053,-58.43721,100.50722657753136
2673870.7635135134,44.44109,73.96479,19.717564,88.51317964137485
2673875.322635135,-37.72659,-19.763027,-30.133892,52.17206413683949
2673879.881756757,-41.294415,24.010439,-37.8582,60.95057996774884
2673884.440878378,52.48126,-59.84663,23.941046,83.12084851057895
2673889.0,20.914017,75.75708,-4.7953877,78.73707525934654
2673894.0861486485,-35.534687,-7.3581924,22.467014,42.68048375615701
2673898.6452702703,-19.248552,-78.40124,-51.964394,96.00812169510213
2673903.204391892,48.50664,78.36774,13.82383,93.19600352303793
2673907.7635135134,-41.325523,-33.541393,-23.484,58.17492717317296
2673912.322635135,-53.83086,-6.2622404,-51.887817,75.02881244023845
2673916.881756757,56.10891,-36.893856,29.557201,73.36889342828633
2673921.440878378,21.619925,67.80544,-12.60584,72.27659408622425
2673926.0,-30.57658,19.363413,23.8214,43.32814449598516
2673930.0861486485,-15.23086,-78.40124,-40.85412,89.70949030538297
2673934.6452702703,48.35828,78.36774,6.389065,92.30842902379081
2673939.204391892,-43.103455,-36.530136,-3.2399976,56.593782817227606
2673943.7635135134,-58.044773,-38.30328,-65.58961,95.59463306761539
2673948.322635135,57.35322,-5.57069,27.676374,63.925003787503805
2673952.881756757,16.214346,48.722,-16.848465,54.042659751939865
2673957.440878378,-22.632124,47.209682,8.583362,53.05319231220252
2673962.0,-3.1610315,-78.40124,-29.758205,83.9183967822528
2673967.0861486485,52.163002,78.36774,4.3287706,94.24022339355434
2673971.6452702703,-43.773468,-29.561987,10.11243,53.78000387355967
2673976.204391892,-61.06462,-61.59824,-67.18329,109.71246712231978
2673980.7635135134,61.660458,25.833836,24.094193,71.06285456950002
2673985.322635135,7.0782223,30.923552,-24.024797,39.79394640037766
2673989.881756757,-23.87883,50.373108,-4.661385,55.94083519100148
2673994.440878378,1.4094229,-78.40124,-19.751064,80.8631277875197
2673999.0,50.315678,78.36774,4.144517,93.22203144359476
2674004.0861486485,-37.32219,-16.417742,18.030563,44.58238801221434
2674008.6452702703,-60.03567,-73.5221,-66.98707,116.17679806202183
2674013.204391892,66.02512,42.68948,19.547667,81.01740219747661
2674017.7635135134,-0.75376606,20.863766,-19.73192,28.72653062697206
2674022.322635135,-25.984589,43.952934,-17.583088,54.00207640751437
2674026.881756757,9.26534,-77.144966,-6.951398,78.00970605386973
2674031.440878378,48.420494,78.26245,1.9885067,92.05166743792576
2674036.0,-26.90825,-4.919819,27.78645,38.99160602819229
2674040.0861486485,-57.96102,-78.02555,-65.72361,117.33311213666411
2674044.6452702703,64.5822,54.4578,14.546489,85.72113438299286
2674049.204391892,-8.265104,12.656091,-21.588818,26.354613375426723
2674053.7635135134,-29.420805,38.631107,-30.052532,57.10604936873587
2674058.322635135,17.616589,-73.4216,3.7951522,75.60078527883216
2674062.881756757,51.385307,76.03465,0.33500713,91.77052907052405
2674067.440878378,-25.860157,13.574967,26.92261,39.72221517397838
2674072.0,-61.53363,-78.40124,-65.37186,119.19153549801304
2674076.0861486485,65.65661,66.64249,9.703242,94.05405262615089
2674080.6452702703,-14.773814,2.732701,-22.737413,27.252948185371906
2674085.204391892,-36.15445,31.717997,-35.254715,59.63279733691631
2674089.7635135134,20.344505,-64.50323,10.892518,68.50702527849424
2674094.322635135,52.440582,69.88966,-0.33740005,87.37673062210594
2674098.881756757,-23.232744,34.998672,30.595722,51.968891081438365
2674103.440878378,-64.36684,-78.40124,-65.1206,120.54267737811037
2674108.0,69.28905,73.59628,8.250747,101.41725546374694
2674113.0861486485,-8.300998,0.8279462,-17.566338,19.446549653764865
2674117.6452702703,-38.24585,18.188494,-41.186733,59.07548841460242
2674122.204391892,26.40574,-62.21322,20.272717,70.56012260673934
2674126.7635135134,51.54324,68.98036,-3.7879734,86.19364476518155
2674131.322635135,-27.784056,51.6916,27.932417,64.99380891925803
2674135.881756757,-56.180695,-78.40124,-63.24456,115.3381952945954
2674140.440878378,74.21126,77.31725,7.7984877,107.45270898752227
2674145.0,-14.175588,-6.2670264,-15.412721,21.858062212096524
2674149.0861486485,-50.772724,-11.155738,-48.97565,71.42082529365871
2674153.6452702703,43.065166,-41.930927,26.573244,65.71870706557168
2674158.204391892,48.94933,60.210354,-3.0366004,77.65658103627469
2674162.7635135134,-30.100391,66.15673,21.086306,75.67944743040488
2674167.322635135,-46.716743,-78.40124,-51.12927,104.61075834157091
2674171.881756757,75.54172,78.36774,3.596541,108.90816884160105
2674176.440878378,-22.608196,3.4721096,0.6676214,22.883002202127372
2674181.0,-73.44074,-63.495815,-57.537476,112.85309902130469
2674186.0861486485,61.64131,13.180138,28.06642,69.00065990866713
2674190.6452702703,31.203522,38.085526,-6.798252,49.70295067857304
2674195.204391892,-32.7637,51.076622,0.6293348,60.68506747884009
2674199.7635135134,-12.715914,-78.40124,-20.48808,82.02566869266838
2674204.322635135,70.40653,68.26967,-2.9743848,98.11561686851014
2674208.881756757,-35.38154,49.217335,10.46658,61.51218362381736
2674213.440878378,-71.55991,-78.40124,-68.97318,126.5893941531363
2674218.0,75.92697,61.899746,9.95689,98.46635459240642
2674222.0861486485,11.978898,26.369846,7.6764493,29.963154860821824
2674226.6452702703,-60.540573,-31.469133,-41.18434,79.69703364727961
2674231.204391892,39.880207,-25.685476,19.861137,51.42605711740104
2674235.7635135134,57.527905,39.095333,-4.1804104,69.68056219048711
2674240.322635135,-52.77798,60.181637,0.110073775,80.04596630134533
2674244.881756757,-23.268639,-78.40124,-31.158056,87.5157611413456
2674249.440878378,72.529045,59.167046,-3.0820656,93.65201988927332
2674254.0,-17.473015,70.7559,12.49098,73.94408846798116
2674259.0861486485,-70.87076,-78.40124,-65.37186,124.26946180125994
2674263.6452702703,71.598206,45.75001,8.006671,85.34326744342977
2674268.204391892,25.489258,33.29971,21.44285,47.09956237160982
2674272.7635135134,-78.09973,-37.934772,-51.923714,101.16662902518142
2674277.322635135,32.13915,-25.163822,15.412721,43.631351904267476
2674281.881756757,58.992363,18.767578,-0.30389932,61.90648779495206
2674286.440878378,-56.7191,64.97463,-8.439787,86.66019185907834
2674291.0,-11.61039,-77.9777,-14.606311,80.17896965084311
2674296.0861486485,75.88869,28.092741,-13.472073,82.03531018851888
2674300.6452702703,-20.870945,78.36774,18.741257,83.23661292869066
2674305.204391892,-63.18713,-78.40124,-60.286926,117.36217992907245
2674309.7635135134,67.36036,54.328587,-8.841795,86.9896016979512
2674314.322635135,32.95513,59.21969,29.846743,74.05295635368685
2674318.881756757,-78.40124,-71.42831,-70.119385,127.14356474384351
2674323.440878378,44.558342,12.914525,11.612783,47.82350391564464
2674328.0,62.385506,-3.1155663,27.429905,68.22065523398875
2674332.0861486485,-72.22514,31.34949,-39.293945,87.99588334088547
2674336.6452702703,13.606075,-56.431953,18.458893,60.913227849829816
2674341.204391892,61.404415,-6.9370403,-12.526874,63.05194114242578
2674345.7635135134,-27.561516,78.36774,10.459401,83.72896097650236
2674350.322635135,-34.5177,-78.40124,-29.748634,90.68190156637407
2674354.881756757,62.497974,24.642168,-32.332973,74.55638363590089
2674359.440878378,18.423,78.36774,29.313124,85.67478532419544
2674364.0,-77.369896,-78.40124,-71.28234,131.202237924755
2674368.0861486485,49.51645,48.576035,-8.114351,69.8380461430224
2674372.6452702703,66.44148,21.686926,44.158726,82.67276520029405
2674377.204391892,-78.40124,-27.750555,-66.73582,106.63262824960297
2674381.7635135134,23.01499,-24.42202,28.334425,43.91997797883242
2674386.322635135,60.46879,-43.49589,16.791037,76.35644003285884
2674390.881756757,-43.24703,76.57784,-11.923861,88.75049095094529
2674395.440878378,-19.372984,-78.40124,-1.6008555,80.77517985701881
2674400.0,50.184067,-0.92605543,-36.913002,62.304637676275156
2674405.0861486485,11.208382,78.36774,25.352861,83.12579660160164
2674409.6452702703,-71.60059,-78.40124,-59.753307,121.83536686579127
2674414.204391892,51.918926,47.31976,-33.28535,77.73447811668628
2674418.7635135134,65.101456,46.14484,47.372402,92.79919344043428
2674423.322635135,-78.40124,-51.794495,-71.46181,118.05174473220937
2674427.881756757,23.828579,-8.4541445,19.088228,31.680185993237245
2674432.440878378,60.408966,-52.65355,36.10659,87.89382994397135
2674437.0,-36.824463,72.943016,-23.90276,85.1355777218445
2674441.0861486485,-19.705599,-75.292854,2.2589052,77.86158968398156
2674445.6452702703,45.795475,-29.593094,-34.278408,64.40486004940097
2674450.204391892,12.763772,78.36774,20.351683,81.96711260809467
2674454.7635135134,-69.10479,-78.40124,-56.415203,118.76405838473569
2674459.322635135,28.765148,36.465527,-40.973766,61.93559476643773
2674463.881756757,69.45177,50.32525,47.22883,97.91190697185047
2674468.440878378,-78.08538,-42.182182,-64.78799,109.88242214415199
2674473.0,16.226309,-16.649855,15.496472,27.940139937575296
2674477.0861486485,55.43411,-55.216354,37.370045,86.70816895683728
2674481.6452702703,-26.274132,72.64151,-17.860666,79.28507033103445
2674486.204391892,-23.850115,-74.816666,1.3113136,78.5371316017228
2674490.7635135134,30.191322,-35.845764,-33.531822,57.62653735468637
2674495.322635135,27.72184,78.36774,18.458893,85.15124083933627
2674499.881756757,-72.46444,-78.40124,-55.290535,120.22850227228743
2674504.440878378,16.807787,23.093956,-48.896683,56.62789167865774
2674509.0,69.63123,40.46647,46.68803,93.09036218027461
2674514.0861486485,-70.30364,-15.441436,-51.378128,88.43501444437085
2674518.6452702703,9.423272,-26.499063,15.077714,31.91137500217985
2674523.204391892,45.01778,-66.4032,27.666803,84.86128372001693
2674527.7635135134,1.3950654,78.36774,-12.22776,79.32822319197295
2674532.322635135,-43.160885,-76.31223,-16.369884,89.18739565504524
2674536.881756757,11.457244,-29.99271,-43.680145,54.210572404657945
2674541.440878378,48.31042,78.36774,22.48855,94.76884632824492
2674546.0,-77.56133,-72.658264,-48.997185,117.02866049300411
2674551.0861486485,8.35125,5.5084743,-23.998476,26.00025992175533
2674555.6452702703,60.59561,-29.413626,53.29485,85.8913871250341
2674560.204391892,-25.276289,61.938034,-33.3715,74.75873095262303
2674564.7635135134,-23.340425,-55.601612,6.4369226,60.644444665093275
2674569.322635135,19.7391,-64.62048,-19.045155,70.20082929150072
2674573.881756757,34.180298,78.36774,10.545546,86.1452493438525
2674578.440878378,-67.87484,-75.4125,-40.241535,109.14861520162235
2674583.0,-0.12443122,-12.77095,-47.738518,49.417393171507285
2674587.0861486485,70.85401,26.077913,45.9893,88.40454736044786
2674591.6452702703,-49.04026,21.564888,-36.980003,65.09617590304482
2674596.204391892,-12.100936,-36.836426,9.557275,39.93365044614876
2674600.7635135134,25.316967,-73.10095,4.7786374,77.50827752170903
2674605.322635135,27.059004,78.36774,0.5551547,82.90959273160463
2674609.881756757,-60.56211,-66.058624,-26.013304,93.31775263808002
2674614.440878378,-10.514439,-33.031704,-57.867695,67.45603769301427
2674619.0,66.21655,53.103416,37.26715,92.70083469901475
2674624.0861486485,-52.024216,-2.9313123,-33.8429,62.13254801329805
2674628.6452702703,-11.768322,-14.175588,-5.5587254,19.244223182919935
2674633.204391892,32.569874,-75.61111,21.832893,85.17342228980483
2674637.7635135134,23.316496,78.36774,-6.3292418,82.00744454126395
2674642.322635135,-55.95576,-62.78991,-17.65009,85.93686957292428
2674646.881756757,-11.674998,-45.812225,-56.934464,74.00404535373674
2674651.440878378,64.876526,63.031593,31.904644,95.91585713902087
2674656.0,-46.936893,-7.686021,-31.10302,56.82908319185072
2674660.0861486485,-14.163623,-0.42833054,-11.51946,18.26169877720103
2674664.6452702703,30.949873,-76.589806,20.284681,85.06092701767083
2674669.204391892,23.371532,78.36774,-4.9150333,81.92611752716427
2674673.7635135134,-55.08235,-59.698273,-11.385457,82.02181241477098
2674678.322635135,-19.64099,-58.690857,-57.685837,84.60520654170828
2674682.881756757,68.92772,62.567368,33.76872,99.02541377487005
2674687.440878378,-42.13193,-1.4620669,-30.904408,52.27159457081293
2674692.0,-22.555552,4.819317,-13.498395,26.724247603014344
2674696.0861486485,31.38299,-77.57569,16.010948,85.20111616742413
2674700.6452702703,26.29806,78.36774,-2.163189,82.69080976215507
2674705.204391892,-55.749973,-58.755466,-8.159817,81.4054475317922
2674709.7635135134,-25.50122,-58.073486,-58.128525,86.03352495600899
2674714.322635135,65.12539,54.43148,30.801514,90.29305456309856
2674718.881756757,-34.276016,12.0147915,-29.628988,46.87299241060754
2674723.440878378,-20.775229,10.222504,-16.922646,28.679011065128677
2674728.0,24.264088,-78.40124,7.374943,82.40078994926319
2674733.0861486485,30.14107,78.36774,3.6898644,84.04523706161395
2674737.6452702703,-55.761936,-57.87727,-13.036563,81.41943173453107
2674742.204391892,-29.526093,-53.503033,-55.7069,82.68992330177686
2674746.7635135134,61.863853,39.147976,33.172886,80.37500045705244
2674751.322635135,-19.382555,28.829756,-27.496906,44.30483166563661
2674755.881756757,-23.12985,6.2670264,-8.781973,25.522316326962294
2674760.440878378,19.030798,-78.40124,-6.2909555,80.92281400913703
2674765.0,31.083876,78.36774,5.6400843,84.49568374066264
2674769.0861486485,-55.627934,-49.47816,-9.504631,75.05260400905566
2674773.6452702703,-36.13052,-52.163002,-58.633427,86.3960185129311
2674778.204391892,58.42046,21.208344,32.596195,70.18016764237572
2674782.7635135134,-3.82626,41.301594,-21.10545,46.539251736904156
2674787.322635135,-25.34329,7.808059,-5.939198,27.17576505371624
2674791.881756757,10.421115,-78.40124,-18.592896,81.24684518827571
2674796.440878378,32.1224,78.36774,8.413465,85.11249995020606
2674801.0,-50.476,-40.645935,-10.308648,65.62154243548477
2674805.0861486485,-34.027153,-36.857964,-52.684658,72.7463390150162
2674809.6452702703,55.400608,-6.8102164,30.971409,63.83443106686057
2674814.204391892,8.982977,55.668613,-15.017891,58.35430917433759
2674818.7635135134,-32.478943,3.2663195,0.18186101,32.64327886258192
2674823.322635135,-4.840853,-78.40124,-33.83333,85.52708641239984
2674827.881756757,36.372204,78.36774,13.247139,87.40667359081077
2674832.440878378,-38.631107,-22.615374,-13.443357,46.73907804647813
2674837.0,-39.00919,-11.440494,-50.48079,64.81444257605118
2674842.0861486485,46.979965,-45.927086,22.402405,69.41384652673159
2674846.6452702703,22.139185,70.08828,-6.905933,73.82548622544327
2674851.204391892,-35.257107,-9.6410265,12.747022,38.71045796489154
2674855.7635135134,-21.241846,-78.40124,-46.16159,93.4283835156823
2674860.322635135,45.369537,70.22467,15.864981,85.09757215299172
2674864.881756757,-22.782879,0.2967206,-18.265068,29.20206033292393
2674869.440878378,-33.871613,24.986746,-37.872555,56.621145035386824
2674874.0,22.1679,-74.01983,1.5960697,77.28452925473609
2674879.0861486485,32.785233,78.12845,4.094266,84.82740840285966
2674883.6452702703,-33.969723,-23.321281,13.536681,43.37125731026772
2674888.204391892,-42.62248,-67.429756,-56.01798,97.47544243987988
2674892.7635135134,55.98687,18.970976,20.997768,62.73223895072852
2674897.322635135,4.661385,39.01876,-18.51393,43.4391269030666
2674901.881756757,-27.17865,31.607924,-3.4816813,41.83135164068985
2674906.440878378,-7.6764493,-78.40124,-29.059475,83.96508437838132
2674911.0,45.838547,78.36774,10.153109,91.3551349741474
2674915.0861486485,-27.59023,-18.62161,-1.8257889,33.33644635458859
2674919.6452702703,-52.09361,-12.175117,-55.694935,77.22631327112549
2674924.204391892,37.578228,-45.41261,15.104036,60.84866695434979
2674928.7635135134,26.637854,66.38645,-4.661385,71.68308391417072
2674933.322635135,-26.436848,8.662328,21.167665,34.9573010987249
2674937.881756757,-34.785706,-78.40124,-53.69207,101.19109721878174
2674942.440878378,57.35322,58.542496,12.744629,82.93998583690534
2674947.0,-8.616862,18.092777,-15.238039,25.17531971722095
2674952.0861486485,-34.259266,30.531115,-30.801514,55.26825087420604
2674956.6452702703,1.4524952,-77.35315,-11.08395,78.15672398988472
2674961.204391892,48.98283,76.95832,5.783659,91.40761108058553
2674965.7635135134,-24.14205,-8.396714,16.50628,30.42697263348255
2674970.322635135,-61.60542,-55.42693,-60.94976,102.87004222152774
2674974.881756757,50.066814,-7.3510137,15.637654,52.96470040651509
2674979.440878378,22.617767,48.018486,-9.30602,53.88822125510254
2674984.0,-22.21576,38.465996,15.680727,47.106878902110935
2674988.0861486485,-38.013737,-78.40124,-42.596157,96.98572691593036
2674992.6452702703,60.784653,72.720474,7.386907,95.06633354738014
2674997.204391892,-16.903503,1.3065279,-7.367764,18.485653225790628
2675001.7635135134,-47.917984,10.215324,-49.195797,69.4313508259377
2675006.322635135,18.691006,-62.737263,4.249805,65.60014265656159
2675010.881756757,44.783276,68.11173,1.1820966,81.52390401138065
2675015.440878378,-19.495022,13.716149,29.356197,37.815009301512724
2675020.0,-62.316113,-77.9107,-61.06941,116.97370624062003
2675025.0861486485,62.36397,46.166374,9.43045,78.16349678508041
2675029.6452702703,7.8128448,23.455286,-18.430178,30.83605756776257
2675034.204391892,-25.168608,49.109653,-9.571632,56.007436877449564
2675038.7635135134,-17.626162,-78.40124,-19.535702,82.69872836398785
2675043.322635135,61.75378,76.89849,2.706379,98.66220956303451
2675047.881756757,-20.806335,-4.1493025,14.76185,25.8463247443661
2675052.440878378,-69.602516,-52.48126,-66.8746,109.86812554093137
2675057.0,45.49397,-4.862389,16.972897,48.79982956651416
2675061.0861486485,32.014717,46.6306,-10.11243,57.459691971459335
2675065.6452702703,-16.96572,51.68442,20.753693,58.22225261008929
2675070.204391892,-42.02425,-78.40124,-44.52245,99.47381854338659
2675074.7635135134,64.1084,74.72095,1.7898953,98.469848403699
2675079.322635135,-18.626396,-3.0940301,-6.2885623,19.901298098604105
2675083.881756757,-50.806225,-3.7257578,-51.069443,72.13349969511485
2675088.440878378,21.875965,-54.35012,15.747728,60.66699535874188
2675093.0,49.365692,58.24338,-0.81119585,76.35391868902553
2675097.0861486485,-19.767815,38.631107,27.080542,51.15158543909893
2675101.6452702703,-59.760487,-78.40124,-61.899746,116.40295870328762
2675106.204391892,63.31156,63.701607,6.015771,90.0135426740915
2675110.7635135134,-3.309392,11.871217,-20.459364,23.884376561996525
2675115.322635135,-27.006361,31.378204,-24.144444,47.92587398052406
2675119.881756757,3.0078855,-72.79227,0.25125536,72.8548219144755
2675124.440878378,55.757153,66.982285,0.90451926,87.15678269405282
2675129.0,-24.110943,27.181044,22.263617,42.61238513861755
2675134.0861486485,-68.11652,-78.035126,-63.890648,121.70191489293083
2675138.6452702703,62.517117,42.423866,16.192808,77.26824286408038
2675143.204391892,14.326341,23.65629,-15.269147,31.591311354864487
2675147.7635135134,-24.453127,40.830193,-8.736507,48.387876943056995
2675152.322635135,-11.9741125,-77.65226,-17.396442,80.4729087800958
2675156.881756757,61.72746,73.04113,1.0169859,95.63639605322494
2675161.440878378,-22.725449,18.355997,13.168173,32.0435553313539
2675166.0,-71.61495,-72.47401,-62.787514,119.68063796321773
2675171.0861486485,59.88492,28.547394,17.480194,68.60549926846443
2675175.6452702703,27.1619,29.983139,-12.038721,42.21004903123381
2675180.204391892,-33.87401,44.275978,2.134474,55.788589878157524
2675184.7635135134,-16.439278,-78.40124,-26.554102,84.39268112653662
2675189.322635135,63.28285,69.18615,2.1368668,93.78703884687874
2675193.881756757,-13.790329,28.327246,9.514202,32.91088086894
2675198.440878378,-68.367775,-70.55489,-61.789673,116.06079807932416
2675203.0,54.319016,13.519931,13.775971,57.64652123455376
2675207.0861486485,32.285114,33.546177,-4.469952,46.77237484018348
2675211.6452702703,-41.72514,40.421005,-5.388829,58.34281816317126
2675216.204391892,-17.355762,-78.40124,-27.781664,84.96939309390848
2675220.7635135134,64.7497,64.01269,2.3570144,91.08075344444572
2675225.322635135,-8.332106,35.809868,8.1526375,37.659476029003194
2675229.881756757,-70.21032,-71.42591,-54.086903,113.8268102424113
2675234.440878378,50.61958,12.613019,9.064336,52.948959525109245
