timestamp,accel_x,accel_y,accel_z,magnitude
196098.90900367155,-0.5336185,8.671899,4.582419,9.822685216441798
196100.06486028992,-1.6941789,7.161974,11.158131,13.366675021673945
196101.22071690825,-5.1327877,5.7860518,14.35027,16.30196779773701
196102.37657352662,-2.8978117,5.106466,8.231604,10.111014393750455
196103.53243014496,-6.9705415,8.542682,3.1155663,11.457426322086558
196104.6882867633,-2.7207365,8.032992,1.2490981,8.572724983219738
196105.84414338166,-1.0122001,7.867882,4.6661706,9.203328977965983
196107.0,1.6606783,5.398401,8.89444,10.536206560545967
196108.90900367155,5.386436,4.893497,8.901618,11.497774075403855
196110.06486028992,-0.6006199,7.659699,6.9896846,10.38688711031145
196111.22071690825,-0.69872916,8.200496,4.034443,9.165865338597294
196112.37657352662,-8.138281,9.492666,6.458459,14.073166597365285
196113.53243014496,-6.606819,6.214382,7.3318706,11.662972495716062
196114.6882867633,-4.094266,6.4608517,7.0279713,10.387396178146503
196115.84414338166,-1.4189945,6.2359185,5.778873,8.619489432663718
196117.0,2.916955,7.3462276,3.8621538,8.797267666604284
196117.90900367155,-2.1033661,9.327556,5.4079723,10.985154267525445
196119.06486028992,0.63412064,7.2720475,6.3124914,9.650509390876952
196120.22071690825,-5.0825367,8.439787,8.119137,12.766462686938185
196121.37657352662,-3.4745026,6.063629,7.547232,10.285935826597003
196122.53243014496,-3.876511,7.3342633,6.563747,10.578351968376591
196123.6882867633,-6.164131,6.9131117,5.884161,10.973193474816657
196124.84414338166,-1.5123179,6.6522846,5.262005,8.615607491644601
196126.0,-1.7922882,7.707557,4.900676,9.307811620197533
196126.90900367155,4.381415,5.75973,2.6465564,7.7055530530589404
196128.06486028992,0.2368979,8.073672,4.29527,9.148204444125001
196129.22071690825,-0.89734054,6.762358,5.8004093,8.954298063635028
196130.37657352662,-4.0799084,7.786523,7.889418,11.811795348745404
196131.53243014496,-8.633613,7.729093,8.518753,14.382187062871454
196132.6882867633,-6.7838945,6.870039,7.209832,12.04991028667331
196133.84414338166,-8.580969,6.872432,8.430215,13.85394801202206
196135.0,-0.069394335,4.6948857,7.004042,8.432281520890927
196135.90900367155,3.2591407,6.826967,7.7889156,10.85802388767905
196137.06486028992,6.034914,5.573083,7.4706593,11.103611641666935
196138.22071690825,7.3534064,6.042093,5.7429795,11.115812477800722
196139.37657352662,0.80162424,8.746079,2.2206187,9.05911953266907
196140.53243014496,-4.2282686,9.138516,3.0342073,10.516517673420951
196141.6882867633,-12.498159,8.681471,9.045193,17.70275214536912
196142.84414338166,-10.442651,5.434294,10.760908,15.94922105216117
196144.0,-6.2359185,5.393615,8.289034,11.691272255833548
196145.90900367155,-0.703515,6.4464946,3.82626,7.5294416506573825
196147.06486028992,3.7688303,8.734115,1.1677392,9.583968984853808
196148.22071690825,0.069394335,9.624276,4.9269977,10.81234527906464
196149.37657352662,2.6010911,7.2217965,9.274912,12.03926958771401
196150.53243014496,-4.407737,7.779344,12.81163,15.623194352897393
196151.6882867633,-1.7372513,4.57524,9.356271,10.55891425111468
196152.84414338166,-5.1088586,7.492195,4.8025665,10.261484644033786
196154.0,-5.0921082,7.4945884,0.208183,9.0632092201058
196154.90900367155,-3.8454032,8.545074,1.0313433,9.427040067725454
196156.06486028992,-4.824103,7.580733,6.5924616,11.144506831590736
196157.22071690825,1.2825987,4.9820347,10.440258,11.638931062765591
196158.37657352662,-2.8188457,6.4704237,11.871217,13.810795306535361
196159.53243014496,1.1318455,4.8576035,7.032757,8.621894050620867
196160.6882867633,-1.2897775,8.169388,2.8810613,8.758021495087114
196161.84414338166,-2.88824,7.4036574,3.6587565,8.748861201348838
196163.0,-3.5175748,7.054293,8.444572,11.55193397083917
196163.90900367155,-5.21654,5.884161,10.607761,13.204553520609547
196165.06486028992,1.2634555,5.3266134,4.6661706,7.193210561483945
196166.22071690825,-2.8164527,10.227289,-1.1557746,10.670785398782202
196167.37657352662,-2.6393776,10.337363,-0.80880296,10.69960513931498
196168.53243014496,-6.1378093,10.0334635,5.254826,12.882402303113915
196169.6882867633,-6.800645,6.58289,12.256475,15.485618896051589
196170.84414338166,-4.714029,5.2643976,13.1011715,14.885450822065787
196172.0,-6.905933,6.3388133,9.518989,13.359776054817194
196172.90900367155,-2.005257,6.2813835,5.4773664,8.571952927423844
196174.06486028992,-0.8351249,7.2265825,2.9241338,7.8403754188309565
196175.22071690825,4.419701,6.6594634,1.3711363,8.109391127484125
196176.37657352662,3.1275308,8.492431,4.761887,10.226358149188725
196177.53243014496,2.1153307,6.195239,10.016713,11.966208654450769
196178.6882867633,-0.5240469,6.781502,12.34262,14.092681185416904
196179.84414338166,-5.5587254,6.8604674,8.123923,11.998481817671639
196181.0,-4.450809,8.171782,1.5386399,9.43160296831228
196182.90900367155,-11.313669,10.868588,0.023929082,15.688399662051907
196184.06486028992,-7.0207925,8.164602,3.6778998,11.378892744256811
196185.22071690825,-3.5773976,8.078458,8.640791,12.358095579494874
196186.37657352662,1.9047549,4.900676,11.160523,12.337017067329484
196187.53243014496,5.230897,5.6640134,9.521381,12.251531633520338
196188.6882867633,3.4242516,6.712107,4.3622713,8.706738212117973
196189.84414338166,4.393379,7.5209103,-0.27518442,8.71444761550024
196191.0,-3.4745026,9.796566,-0.09093051,10.394861329878895
196191.90900367155,-5.6640134,7.810452,5.778873,11.246314124628235
196193.06486028992,-10.722621,7.8272023,8.626433,15.832089036455526
196194.22071690825,-8.621648,5.3505425,7.779344,12.785902875845188
196195.37657352662,-3.615684,6.9418263,4.737958,9.149337089483133
196196.53243014496,-1.301742,7.267262,4.2737336,8.530675711511776
196197.6882867633,3.5845764,6.11388,5.654442,9.066500479964747
196198.84414338166,0.43072346,6.3364205,10.153109,11.975866140605264
196200.0,4.9533195,3.9626558,11.088737,12.774901303474829
196200.90900367155,-2.495803,7.7937016,10.114822,13.01078173425162
196202.06486028992,-3.8956544,7.5400534,6.0038066,10.395875247870881
196203.22071690825,-6.2622404,10.559903,0.72505116,12.29849199623346
196204.37657352662,-6.147381,9.636241,0.64129937,11.448087117558305
196205.53243014496,-0.83751786,8.899225,3.541504,9.614566675022852
196206.6882867633,-2.7733805,8.851367,8.379964,12.5004853428883
196207.84414338166,3.5367181,6.1808815,8.315355,10.947913034543838
196209.0,-1.093559,8.561825,6.609212,10.87117297618109
196209.90900367155,0.94280577,6.7264647,5.312256,8.622892431767161
196211.06486028992,-5.0466433,8.643184,6.568533,11.971585693941297
196212.22071690825,-5.55394,5.826731,9.47113,12.42977663302366
196213.37657352662,-3.254355,5.441473,9.894675,11.751810423563638
196214.53243014496,-2.9719918,5.802802,8.025814,10.3401613465684
196215.6882867633,3.6731138,6.4417086,1.509925,7.567512681237435
196216.84414338166,-0.3517575,9.731957,0.14118157,9.739335327647515
196218.0,2.2852273,8.279462,1.9143264,8.799795474205425
196219.90900367155,-6.0397,9.188767,8.291427,13.771680244858215
196221.06486028992,-2.708772,5.5252247,7.9875274,10.082963240001664
196222.22071690825,-6.5469966,8.688649,7.836774,13.407863836297285
196223.37657352662,-7.5448394,7.0136137,8.959048,13.652103126292449
196224.53243014496,-5.1758604,6.9705415,9.547704,12.904907258679794
196225.6882867633,-2.2947989,6.9394336,7.3845143,10.390038119619902
196226.84414338166,3.306999,6.2311325,7.580733,10.355228990024617
196228.0,-0.5001178,8.229211,8.023421,11.504143429201449
196228.90900367155,1.8329676,6.874825,5.0131426,8.703711147045812
196230.06486028992,-0.3828653,10.567082,1.2060257,10.642570451809496
196231.22071690825,-2.4838386,10.251218,2.5915194,10.861532924727998
196232.37657352662,-3.5750046,9.425665,7.150009,12.359063365899827
196233.53243014496,-8.72215,8.449359,10.272755,15.905881409824667
196234.6882867633,-2.938491,6.9657555,7.099758,10.371260420094814
196235.84414338166,-5.616155,9.155267,5.8985186,12.253678325297264
196237.0,1.9932925,5.3649,5.206968,7.737433861014919
196237.90900367155,0.4785816,7.231368,7.1236873,10.162118098480446
196239.06486028992,3.3141778,4.2833056,6.8580747,8.738630896415312
196240.22071690825,1.2347406,7.1763315,5.448652,9.094620759783478
196241.37657352662,-3.936334,8.487645,4.0535865,10.19639183822215
196242.53243014496,-6.405815,8.624041,6.5302463,12.57189984539209
196243.6882867633,-9.021263,7.8319883,7.736272,14.23281881092041
196244.84414338166,-3.3381069,6.166524,4.819317,8.508512929113559
196246.0,-4.22109,9.349092,1.7755378,10.410362937563361
196246.90900367155,0.17707519,7.4945884,3.2232473,8.160241054361407
196248.06486028992,0.09810923,7.212225,8.72215,11.31820283853122
196249.22071690825,-0.37568656,4.314413,14.661348,15.287590559111583
196250.37657352662,2.9217408,3.8166883,10.643655,11.678658768915485
196251.53243014496,-3.5534685,8.190925,1.6008555,9.070894612330004
196252.6882867633,-6.384279,10.492902,-0.3326142,12.287011147446991
196253.84414338166,-9.105016,10.543153,2.759023,14.201112613319916
196255.0,-2.579555,7.2481184,7.760201,10.927490283630755
196255.90900367155,-0.6580497,7.185903,9.361056,11.819458564934989
196257.06486028992,2.1440456,5.228504,9.839638,11.346923000705493
196258.22071690825,3.8669395,6.3053126,6.190453,9.645304371847889
196259.37657352662,1.170132,6.6163907,5.3577213,8.5936611709413
196260.53243014496,2.8212388,6.1545596,4.343128,8.04367783174846
196261.6882867633,-4.3670573,7.839167,5.314649,10.429248424914103
196262.84414338166,-3.4792883,6.824574,4.7762446,9.027334591950275
196264.0,-7.260083,9.341913,3.433823,12.319548857883838
196265.90900367155,-4.082301,8.461323,3.4218585,9.998414072189261
196267.06486028992,-6.1737027,9.0978365,6.9035397,12.982453327402938
196268.22071690825,-2.603484,5.1926107,10.46658,11.970406497542617
196269.37657352662,1.691786,4.8719606,10.679549,11.859633501974223
196270.53243014496,1.588891,5.2476473,8.231604,9.890484376808564
196271.6882867633,3.22564,6.271812,4.661385,8.453927447711449
196272.84414338166,-3.0246358,8.624041,2.4670882,9.466204576222822
196274.0,-0.7226582,7.398872,5.4869385,9.239698904682635
196274.90900367155,-3.2711053,7.592697,7.4634805,11.137895617726777
196276.06486028992,0.30629224,5.391222,7.5065527,9.247022387095509
196277.22071690825,-0.36372203,8.305784,2.474267,8.674118903787999
196278.37657352662,-2.392908,8.449359,0.9571632,8.833676335409807
196279.53243014496,-3.804724,8.478073,3.9482985,10.09666814125369
196280.6882867633,-6.3866715,7.130866,9.294055,13.34234915979541
196281.84414338166,-1.170132,5.312256,10.52401,11.846689798718458
196283.0,-3.0772798,7.5089455,6.587676,10.452338904304352
196283.90900367155,0.07896597,8.257926,3.4864671,8.964096735604567
196285.06486028992,-2.318728,10.189003,2.3641932,10.713621757319942
196286.22071690825,-0.16271774,6.949005,5.3218274,8.754255789518973
196287.37657352662,-0.48576033,6.9705415,6.5804973,9.598299673209377
196288.53243014496,-1.9047549,5.329006,9.447201,11.012538440864168
196289.6882867633,0.2392908,5.410365,9.308413,10.76920898203571
196290.84414338166,-4.979642,7.523303,7.6142335,11.80565433470315
196292.0,-3.2112827,7.3270845,4.314413,9.089150861550738
196292.90900367155,-7.449123,9.320377,3.7592585,12.5096317036546
196294.06486028992,-2.215833,6.9585767,6.535032,9.799915755489732
196295.22071690825,-2.9552414,7.8989897,7.523303,11.301662622941327
196296.37657352662,2.60827,5.927233,5.7118716,8.63485035215293
196297.53243014496,2.9767776,8.300998,3.0868514,9.343255548337941
196298.6882867633,1.6247846,7.1954746,5.467795,9.182132752126126
196299.84414338166,2.916955,5.7932305,9.416093,11.433851209579572
196301.0,-2.424016,5.441473,12.029149,13.423334445739851
196302.90900367155,-0.8734115,4.9317837,7.2648687,8.824038493805295
196304.06486028992,-7.2576904,9.877925,0.014357449,12.257555971082446
196305.22071690825,-6.9633627,10.478544,-1.0026284,12.621155579429875
196306.37657352662,-9.049978,11.464422,2.3976939,14.801486737239108
196307.53243014496,-2.7183435,7.207439,7.98992,11.098440878299673
196308.6882867633,2.1751535,6.353171,12.273226,13.990216258188408
196309.84414338166,2.7398798,4.8599963,15.116,16.112726689001512
196311.0,5.8937325,5.2189326,7.9540267,11.191062550500373
196311.90900367155,-1.8640754,9.612311,-1.0074143,9.84307794490375
196313.06486028992,-7.379729,11.172488,1.3831009,13.460975310993101
196314.22071690825,-9.626669,8.700614,5.518046,14.100435158911694
196315.37657352662,-1.7731448,5.807588,7.5615897,9.69792553336316
196316.53243014496,-1.4548881,7.499374,9.535739,12.218331639447285
196317.6882867633,1.7683591,4.513025,12.519695,13.425246792897433
196318.84414338166,2.6321988,6.6474986,9.243804,11.68612940841147
196320.0,2.629806,7.764987,2.3139422,8.518522830441075
196321.90900367155,0.50968945,9.894675,-0.26082698,9.911226332021794
196323.06486028992,-4.991606,9.7415285,-0.57429796,10.960991110406413
196324.22071690825,-5.4199367,8.04735,6.4417086,11.646079406470696
196325.37657352662,-5.259612,6.295741,9.909033,12.864245338328791
196326.53243014496,1.1246668,5.128002,8.377571,9.886605877805954
196327.6882867633,-0.650871,8.7053995,4.788209,9.95663391618484
196328.84414338166,0.35415038,6.99447,6.3723145,9.46860206997128
196330.0,-2.995921,8.827438,6.6714277,11.463295854090667
196330.90900367155,-4.742744,7.3534064,7.5113387,11.531973612492123
196332.06486028992,-5.123216,8.463716,6.334028,11.747414243828128
196333.22071690825,-7.075829,9.241411,5.2931128,12.786245595235759
196334.37657352662,-0.8255533,8.518753,6.1880603,10.561381595349445
196335.53243014496,-1.7516087,9.078693,7.6429486,11.996060308634942
196336.6882867633,4.4723454,7.207439,6.271812,10.549155230584399
196337.84414338166,1.0050215,9.4998455,3.8119025,10.285316398090957
196339.0,2.7207365,6.7838945,4.242626,8.451242930210826
196339.90900367155,-1.1581675,7.3893003,6.118666,9.663394046668714
196341.06486028992,-1.14381,4.8288884,7.0949726,8.658238890819849
196342.22071690825,-3.7185793,7.10933,5.697514,9.840328797326057
196343.37657352662,-9.358664,9.688885,4.395772,14.169752851906239
196344.53243014496,-8.157424,10.571868,3.3404996,13.764697486788448
196345.6882867633,-7.185903,9.643419,5.1136446,13.068362293343384
196346.84414338166,1.0050215,6.9083257,5.6448703,8.977727602047459
196348.0,-2.1990826,9.344306,5.4055796,11.01691017096876
196348.90900367155,1.3687434,7.243333,8.248354,11.062308762335672
196350.06486028992,-0.9739136,7.580733,11.806608,14.064565865437084
196351.22071690825,0.84948236,4.6757426,11.4716015,12.416997628904026
196352.37657352662,-1.9358627,8.102386,4.450809,9.444888778631979
196353.53243014496,-6.066022,10.839873,-1.3519931,12.495093233067957
196354.6882867633,-7.5209103,11.935825,0.21775463,14.109409174382801
196355.84414338166,-5.7956233,8.681471,4.874354,11.520265408256005
196357.0,0.7896597,5.996628,10.480937,12.100956582442443
196357.90900367155,-0.17946811,6.7049284,11.952576,13.70592378088429
196359.06486028992,3.6372204,5.6855497,8.683864,10.99837904419748
196360.22071690825,-1.639142,9.789387,2.7350938,10.295611804391783
196361.37657352662,-2.2445478,9.05955,2.4479449,9.649138576184967
196362.53243014496,-7.1978674,9.899461,6.4106007,13.816816729382504
196363.6882867633,-7.623805,7.575947,9.15766,14.120202275478706
196364.84414338166,-2.4120514,8.044957,5.336185,9.950587693313194
196366.0,-1.7013576,9.33952,3.8286529,10.236202154224786
196366.90900367155,4.008121,7.7817373,5.7429795,10.469110893207336
196368.06486028992,-0.9667349,8.425429,9.466345,12.70960730549705
196369.22071690825,4.656599,5.266791,7.386907,10.197519144925936
196370.37657352662,-2.3330853,9.614705,2.68245,10.25092080042574
196371.53243014496,-5.5754757,10.193789,2.3737648,11.858921653486481
196372.6882867633,-11.071986,10.500081,4.886318,16.022380553085146
196373.84414338166,-8.102386,7.9277043,7.6261983,13.662212663846123
196375.0,-1.6199988,7.585519,7.2217965,10.598058279646073
196375.90900367155,1.3831009,6.855682,7.686021,10.391740114011023
196377.06486028992,5.673585,6.152167,6.374707,10.520247852781939
196378.22071690825,1.483603,7.367764,6.0492716,9.647730878909899
196379.37657352662,2.8044882,6.8532887,6.5733185,9.901577458765304
196380.53243014496,-6.4728165,8.822652,8.071279,13.597135229584843
196381.6882867633,-5.3385777,7.4132295,7.8128448,12.020687473996425
196382.84414338166,-6.5972476,9.617098,4.082301,12.356270929852208
196384.0,-1.2586696,8.339285,3.048565,8.967813113151621
196385.90900367155,1.0839874,9.796566,1.2155973,9.931032719283632
196387.06486028992,2.1823323,8.095208,4.118195,9.341011555977879
196388.22071690825,3.7449012,6.8150024,6.1545596,9.917012986767707
196389.37657352662,-1.8449322,7.370157,6.5781045,10.049599387048525
196390.53243014496,-2.9648132,7.592697,5.7166576,9.95586958333329
196391.6882867633,-10.031071,9.0475855,5.4773664,14.576787419273844
196392.84414338166,-5.336185,8.217246,5.649656,11.310022771731143
196394.0,-4.7044573,9.049978,6.669035,12.186469879305994
196394.90900367155,3.4266443,5.9679127,8.298605,10.780756842614009
196396.06486028992,3.6276486,7.5448394,8.315355,11.799557818532834
196397.22071690825,5.4558306,5.6257267,5.2931128,9.456845750698966
196398.37657352662,0.82076746,8.446965,1.7635733,8.668048668477395
196399.53243014496,-2.9049904,8.592933,0.90451926,9.115679999774681
196400.6882867633,-4.905462,7.4060507,5.223718,10.30535657548726
196401.84414338166,-8.621648,6.8365383,9.822887,14.749921327859342
196403.0,-3.7161863,6.9657555,7.575947,10.941972548352373
196404.90900367155,-2.9576344,8.971012,3.9602628,10.242574822439483
196406.06486028992,2.3306925,8.035385,4.2833056,9.399268401890257
196407.22071690825,0.98827106,7.4132295,7.475445,10.574257858390288
196408.37657352662,4.1469097,3.2591407,10.445044,11.701188073195242
196409.53243014496,0.4402951,5.721443,6.800645,8.898176340877832
196410.6882867633,-2.4264088,7.24094,3.4553592,8.382015208131161
196411.84414338166,-8.0641,9.518989,4.1421237,13.145267176372746
196413.0,-10.272755,8.638398,6.0038066,14.703642711472304
196413.90900367155,-4.4675593,8.777187,6.6020336,11.856852254604274
196415.06486028992,0.39722276,8.076065,5.522832,9.791950015472455
196416.22071690825,7.891811,6.1808815,4.3838077,10.940829352811539
196417.37657352662,2.5364826,7.260083,7.5711613,10.791896616332528
196418.53243014496,5.199789,3.9171906,7.7267003,10.103666926778091
196419.6882867633,-2.9719918,7.5328746,4.405344,9.218676193300663
196420.84414338166,-3.4792883,7.3462276,3.0533507,8.683055771023767
196422.0,-7.4515157,9.258162,2.2469406,12.094932488671397
196422.90900367155,-6.8293595,9.296448,3.309392,12.000673814690916
196424.06486028992,-3.565433,9.588383,4.816924,11.307172849742503
196425.22071690825,-0.5240469,6.8413243,9.983212,12.113746949978529
196426.37657352662,4.6278844,4.993999,10.342149,12.382139797707234
196427.53243014496,1.1150951,5.860232,7.2768335,9.40946661413867
196428.6882867633,4.7451367,5.620941,1.8138243,7.576361832597383
196429.84414338166,-3.2208543,9.160052,0.12203831,9.710579200729487
196431.0,-2.9839563,7.764987,3.5367181,9.039214193133509
196431.90900367155,-8.257926,8.399107,6.511103,13.458558707957328
196433.06486028992,-6.1114874,7.8942037,8.975799,13.425114449637046
196434.22071690825,-2.390515,8.628826,6.30292,10.949794547383116
196435.37657352662,1.3759222,7.5376606,5.958341,9.706251423362481
196436.53243014496,2.9217408,6.6857853,5.3218274,9.0309546148495
196437.6882867633,-0.234505,5.8171597,6.767144,8.926845886821678
196438.84414338166,2.5963054,5.0418572,5.21654,7.705414675853662
196440.0,-3.2352118,7.755415,3.9411197,9.281459028774103
196441.90900367155,-2.577162,8.238783,3.4242516,9.286808295395979
196443.06486028992,-10.126787,10.808765,3.1610315,15.14507629272914
196444.22071690825,-5.314649,8.908797,5.4821525,11.733122091483846
196445.37657352662,-3.484074,8.214853,6.774323,11.2033045820157
196446.53243014496,4.2330546,5.7645154,6.6738205,9.782038085677163
196447.6882867633,2.8810613,8.090423,6.2789907,10.638664518818759
196448.84414338166,4.084694,5.1710744,6.58289,9.314460600382148
196450.0,1.7587874,6.3651357,5.6903353,8.71712116608685
196450.90900367155,-1.225169,6.712107,3.6826856,7.75342457798213
196452.06486028992,-3.254355,7.9540267,2.163189,8.862096470929375
196453.22071690825,-9.466345,9.719993,1.9286839,13.704370586247046
196454.37657352662,-8.827438,9.813316,3.4290373,13.637563175453717
196455.53243014496,-6.274205,8.533111,3.4960387,11.153560790718078
196456.6882867633,0.7322299,7.4347653,6.24549,9.737455572819734
196457.84414338166,1.2802058,6.7551794,9.392164,11.639764611856805
196459.0,5.6903353,3.75208,9.224661,11.469629057547898
196459.90900367155,0.8829831,7.161974,5.2428617,8.919704565560929
196461.06486028992,-1.196454,8.044957,4.7714586,9.429721760342613
196462.22071690825,-5.503689,8.169388,4.718815,10.922303232720195
196463.37657352662,-7.288798,7.4874096,6.6977496,12.411596533374597
196464.53243014496,-2.3498356,7.764987,4.8049593,9.428912149970051
196465.6882867633,-1.117488,8.547467,4.051193,9.524711873305248
196466.84414338166,3.7305436,8.176567,5.199789,10.383208035164804
196468.0,-0.6676214,7.741058,7.5903044,10.86197119208854
196468.90900367155,4.8025665,4.6972785,6.6355343,9.44242478074149
196470.06486028992,-1.8688612,7.6166263,5.860232,9.79019700887276
196471.22071690825,-0.36611494,6.4536734,5.149538,8.264483172988058
196472.37657352662,-6.3053126,8.789151,3.8836899,11.493006113453598
196473.53243014496,-5.9511623,8.822652,4.2856984,11.472695054336965
196474.6882867633,-3.3165705,9.28209,1.4764243,9.96677798303949
196475.84414338166,-0.78487384,8.1526375,4.5034533,9.346797140004885
196477.0,-0.51926106,7.791309,7.0638647,10.529592227708507
196477.90900367155,-3.2998202,7.449123,7.650127,11.17598720192476
196479.06486028992,-2.5939124,7.5831256,6.1282377,10.08897778330146
196480.22071690825,-5.285934,7.336656,7.853524,11.976871825867889
196481.37657352662,1.7348584,5.8458743,8.521146,10.47825887983147
196482.53243014496,-0.016750356,7.2002606,9.495059,11.916382785720652
196483.6882867633,4.850425,6.987292,6.762358,10.866386607058162
196484.84414338166,0.5049036,9.624276,2.0339718,9.849804944904452
196486.0,2.6345918,7.9492407,1.9095407,8.589403200695623
196487.90900367155,-2.7374868,7.602269,4.840853,9.41924549505661
196489.06486028992,-2.0387578,4.462774,7.757808,9.179132317762983
196490.22071690825,-1.9980782,7.133259,4.735565,8.792114439861509
196491.37657352662,-4.8647823,9.169623,4.1804104,11.190349587968663
196492.53243014496,-6.45128,10.021499,4.5178103,12.745982337669666
196493.6882867633,-8.0617075,9.607526,4.936569,13.478330651382361
196494.84414338166,-2.3833365,8.707792,5.1878247,10.412466542823863
196496.0,0.047858164,7.111723,6.144988,9.39892397845277
196496.90900367155,5.62812,4.998785,6.7910733,10.138158746863155
196498.06486028992,-0.1459674,7.370157,6.64032,9.92140969766453
196499.22071690825,-0.055036888,6.6833925,7.415622,9.983096414188385
196500.37657352662,-5.2931128,7.839167,5.826731,11.109472377830274
196501.53243014496,-4.0990515,6.432137,7.575947,10.750329415103067
196502.6882867633,-3.6563635,7.0447216,4.663778,9.205863441248887
196503.84414338166,-2.6369848,8.289034,3.668328,9.44025443535136
196505.0,-0.14357449,9.593168,1.8951832,9.779632164451023
196505.90900367155,0.33022133,7.5400534,6.3675284,9.874556664805013
196507.06486028992,3.8406174,5.417544,8.561825,10.835357508441692
196508.22071690825,0.6676214,5.491724,8.652756,10.270099182649112
196509.37657352662,4.22109,5.721443,5.3266134,8.883992407887828
196510.53243014496,-3.5702188,8.540289,2.5197322,9.593333562589766
196511.6882867633,-4.2569833,8.076065,4.3670573,10.12007520536222
196512.84414338166,-7.7721653,8.021028,6.1856675,12.767377414640187
196514.0,-1.5649619,6.7910733,5.6305127,8.959378079938684
196514.90900367155,-0.53840435,8.786758,2.5604117,9.168026148967936
196516.06486028992,2.8906329,8.296212,4.4173083,9.833387245947112
196517.22071690825,-0.34697166,9.119372,4.8025665,10.312515696674087
196518.37657352662,-2.3665862,7.449123,6.219168,9.988403992800022
196519.53243014496,-4.742744,6.9848986,6.3124914,10.541820373013948
196520.6882867633,-7.0447216,6.101916,9.351485,13.202717636827183
196521.84414338166,-1.9932925,5.4773664,7.549625,9.53790308773528
196523.0,-2.1057591,7.815238,5.6951213,9.89679609801023
196524.90900367155,4.039229,8.334499,2.9743848,9.727600394440195
196526.06486028992,1.277813,8.250747,4.2856984,9.384819811628807
196527.22071690825,6.1856675,4.843246,5.932019,9.844204571900832
196528.37657352662,-1.1605604,6.0612364,7.5591965,9.758429118682235
196529.53243014496,0.63412064,4.8887115,6.642713,8.272076227687657
196530.6882867633,-7.0734363,9.172017,2.7015932,11.893611846564227
196531.84414338166,-5.3649,8.877689,4.245019,11.207841018728004
196533.0,-4.393379,8.171782,5.329006,10.699444146365781
196533.90900367155,-2.0626867,6.9896846,8.72215,11.36601371864094
196535.06486028992,0.9763065,7.985134,4.4675593,9.201881627086644
196536.22071690825,0.16989647,8.358428,4.3646646,9.430932112585458
196537.37657352662,0.9763065,7.231368,4.812138,8.740854058066079
196538.53243014496,-3.3141778,6.594855,6.6522846,9.936235572913668
196539.6882867633,-2.3091564,6.5781045,7.0399356,9.907792657536216
196540.84414338166,-6.3292418,7.386907,8.44218,12.88006599136496
196542.0,-0.66044265,6.5254602,8.159817,10.469022341613952
196542.90900367155,-1.8640754,8.099994,6.738429,10.700051648705355
196544.06486028992,1.9358627,8.466109,4.3862004,9.729404912022751
196545.22071690825,-0.39243692,9.193553,1.8401463,9.384112206564442
196546.37657352662,2.603484,6.944219,3.4433947,8.176629716344326
196547.53243014496,-2.474267,7.001649,6.7025356,10.003452872671383
196548.6882867633,-1.6343563,4.3790216,8.492431,9.693726578482458
196549.84414338166,-3.2136755,7.939669,4.57524,9.710760789271934
196551.0,-5.2978983,9.47113,4.398165,11.70956383650851
196551.90900367155,-5.649656,9.842031,3.75208,11.952501472482528
196553.06486028992,-6.590069,9.183981,6.9609694,13.275150146829164
196554.22071690825,0.27039862,7.2481184,7.1715455,10.199970618226638
196555.37657352662,1.1725249,6.855682,7.3031554,10.085200499880663
196556.53243014496,5.675978,6.2933483,6.2837768,10.550299045705534
196557.6882867633,-0.57669085,8.001884,5.1758604,9.547368787588436
196558.84414338166,0.1459674,6.8341455,5.599405,8.836299426290283
196560.0,-6.511103,7.6668777,6.932255,12.216040083774745
196561.90900367155,-2.8212388,5.7429795,8.868117,10.935479003214018
196563.06486028992,-2.68245,6.9657555,6.795859,10.094601885966641
196564.22071690825,-1.196454,8.257926,6.64032,10.663896740778766
196565.37657352662,-0.8925547,9.674527,0.92605543,9.759646777709404
196566.53243014496,-0.19861138,9.181588,0.3230426,9.189415716106453
196567.6882867633,-2.445552,9.076301,4.065551,10.24151694627832
196568.84414338166,-4.9030685,6.0061994,11.146166,13.577611293884082
196570.0,-0.74658734,5.2931128,9.760673,11.12857462493293
196570.90900367155,-3.0748868,7.70995,6.9705415,10.83912849995499
196572.06486028992,-1.4883888,9.014085,5.156717,10.490984692834102
196573.22071690825,-7.150009,10.081322,4.321592,13.09319821060649
196574.37657352662,-1.40703,8.992549,3.8310459,9.875352329218833
196575.53243014496,-2.0339718,8.389536,5.333792,10.147447594235471
196576.6882867633,5.0921082,5.077751,6.3771,9.611478842951705
196577.84414338166,0.9786994,7.2241898,6.101916,9.50684751392597
196579.0,3.3428926,6.219168,4.4292727,8.334952801205539
196579.90900367155,-3.7855806,8.600112,3.275891,9.951080782282965
196581.06486028992,-3.5271466,6.9226832,6.5039244,10.13239055832182
196582.22071690825,-6.176096,7.4945884,6.200025,11.521863004187107
196583.37657352662,-6.793466,7.8750606,6.5039244,12.266572151491374
196584.53243014496,-3.7401154,9.13373,2.706379,10.234157230073132
196585.6882867633,-1.3519931,8.837009,3.1036017,9.463242410546796
196586.84414338166,2.3474429,7.681235,6.9155045,10.598870778696458
196588.0,-0.09332342,5.484545,13.498395,14.570367555205
196588.90900367155,3.4864671,4.1349454,11.359135,12.581064114318334
196590.06486028992,-2.2995846,7.7506294,4.2474117,9.13240666954765
196591.22071690825,-3.902833,9.66017,3.0102785,10.844941977823177
196592.37657352662,-8.2028885,9.789387,3.6635423,13.28687396504876
196593.53243014496,-3.3189635,8.360821,5.0945015,10.337929775437415
196594.6882867633,0.39961565,8.006671,2.995921,8.558154930135755
196595.84414338166,4.345521,7.7195215,5.83391,10.607029312606958
196597.0,0.7992313,8.38475,8.89444,12.249647592767708
196598.90900367155,0.5312256,4.757101,10.617333,11.646457426839518
196600.06486028992,-1.6606783,5.4821525,8.207675,10.008884920657852
196601.22071690825,-0.87819725,5.278755,5.5635114,7.719400485650588
196602.37657352662,-4.917426,9.181588,4.271341,11.257308319731719
196603.53243014496,-5.9750915,9.698457,4.0918727,12.103933608840828
196604.6882867633,-1.9095407,9.909033,2.7566302,10.461084587154314
196605.84414338166,0.234505,7.8942037,5.0825367,9.391784918691739
196607.0,5.494117,5.8123736,6.750394,10.465984312567164
196607.90900367155,0.028714897,6.7480006,8.143066,10.575720331176788
196609.06486028992,1.4453164,5.8698034,7.449123,9.593381307958603
196610.22071690825,-5.415151,7.6573057,4.668564,10.476339091407336
196611.37657352662,-4.22109,6.661856,6.0397,9.933574494754444
196612.53243014496,-6.594855,6.968148,6.7145,11.710324900314637
196613.6882867633,-2.2947989,7.394086,6.6714277,10.219909849072275
196614.84414338166,-0.31586388,8.815474,3.5343254,9.502831571087105
196616.0,3.1418884,8.2124605,4.682921,9.962214576807499
196616.90900367155,1.7061435,8.829831,3.5103962,9.654000342455333
196618.06486028992,-0.6532639,7.733879,7.360585,10.696627957067088
196619.22071690825,-1.7324655,6.0612364,8.0617075,10.233823880687583
196620.37657352662,-4.189982,5.3457565,9.495059,11.6742968581023
196621.53243014496,-1.4788172,6.4608517,5.329006,8.504575824134013
196622.6882867633,-5.061001,9.736743,2.3330853,11.218787028334484
196623.84414338166,-3.0940301,10.588618,1.304135,11.108223148094163
196625.0,-4.2809124,9.69367,4.431666,11.486214022946367
196625.90900367155,2.7925239,6.6546774,6.4369226,9.670413310119311
196627.06486028992,-0.069394335,6.197632,10.210539,11.944478416895194
196628.22071690825,3.7879734,3.8956544,10.863803,12.146895953541215
196629.37657352662,-4.070337,7.630984,7.5711613,11.494435328994753
196630.53243014496,-1.4620669,8.009064,4.36945,9.239850598287378
196631.6882867633,-5.2691836,9.920997,-0.1172525,11.234065400970131
196632.84414338166,-2.6226273,9.229446,2.5412683,9.92566833992584
196634.0,-1.3687434,7.9540267,4.5848117,9.282267910581623
196634.90900367155,1.117488,6.1545596,10.600583,12.308523194924124
196636.06486028992,-0.1196454,6.661856,10.985841,12.84847628568299
196637.22071690825,-1.691786,5.5946193,11.749179,13.122694546310582
196638.37657352662,0.057429794,6.484781,6.381886,9.098579653780906
196639.53243014496,-2.010043,7.6620917,4.338342,9.03156317533249
196640.6882867633,0.055036888,7.755415,2.6202343,8.186276239424261
196641.84414338166,-4.761887,9.605133,2.010043,10.907539622220357
196643.0,-2.995921,10.14593,1.7492158,10.72264865218061
196644.90900367155,-4.513025,9.853995,2.3761578,11.095708089218588
196646.06486028992,-1.9885067,8.968619,5.0370717,10.47675412396639
196647.22071690825,-3.7879734,8.207675,7.181117,11.544830564041275
196648.37657352662,-2.7398798,6.3148847,10.035856,12.169762353697715
196649.53243014496,-5.8937325,6.3172774,10.698692,13.751584891966854
196650.6882867633,-1.6989647,5.3266134,9.2988405,10.850240827251067
196651.84414338166,-3.412287,8.391929,5.0442505,10.368830118106874
196653.0,-2.132081,10.157895,3.0007067,10.804297335829428
196653.90900367155,-1.6056414,10.351721,1.6271775,10.60112817504539
196655.06486028992,1.9693633,8.250747,5.0346785,9.86413734006974
196656.22071690825,1.3232782,7.530482,8.336892,11.312072867807352
196657.37657352662,-0.57908374,5.3744717,11.94779,13.113732112413052
196658.53243014496,0.08614469,6.1784887,7.8487387,9.98918628840811
196659.6882867633,-3.6037195,8.159817,4.850425,10.153621540553608
196660.84414338166,-3.101209,8.569004,3.9147975,9.918213865394476
196662.0,-6.0516644,8.841795,4.663778,11.685495542146954
196662.90900367155,-1.251491,8.269891,5.329006,9.917440789992042
196664.06486028992,-0.67240715,7.5017667,7.209832,10.426423762001235
196665.22071690825,3.776009,6.8891826,6.7360363,10.348587628229344
196666.37657352662,-2.4599094,9.234232,4.6398487,10.623106459267179
196667.53243014496,-1.3926725,8.370393,4.4149156,9.5652755016167
196668.6882867633,-7.650127,9.231839,3.9961565,12.638060025595
196669.84414338166,-5.230897,7.5161242,6.953791,11.498244026203116
196671.0,-5.7740874,8.190925,6.6259627,12.013938544884232
196671.90900367155,-3.4768956,8.095208,8.719757,12.395779834912055
196673.06486028992,-2.5364826,8.624041,9.121766,12.806812332057488
196674.22071690825,0.571905,6.690571,10.471366,12.43946628843143
196675.37657352662,4.3096275,6.8078237,7.379729,10.926104192825498
196676.53243014496,4.326378,6.590069,4.7044573,9.180330849766161
196677.6882867633,1.7276796,8.389536,2.3522286,8.882689372155829
196678.84414338166,-2.7901309,9.107409,1.9047549,9.713795363373157
196680.0,-5.518046,8.63122,4.3646646,11.135397946055146
196681.90900367155,-8.982977,8.128709,7.552018,14.27595046438359
196683.06486028992,-4.891104,7.554411,8.037778,12.066395446570652
196684.22071690825,-2.8427749,7.3079414,7.6261983,10.938294069407116
196685.37657352662,2.9552414,7.2529044,6.274205,10.03512443120853
196686.53243014496,1.2299547,7.992313,6.247883,10.218899042250593
196687.6882867633,4.5202036,5.3505425,8.999727,11.404193601666371
196688.84414338166,0.703515,6.0277357,8.930333,10.79719308501837
196690.0,0.8446966,6.058843,7.575947,9.73745674144484
196690.90900367155,-5.3002915,9.542917,2.474267,11.192959932080086
196692.06486028992,-5.9798775,10.387614,1.9956853,12.150893767317626
196693.22071690825,-7.1189017,10.892518,2.165582,13.19149177285537
196694.37657352662,-3.2208543,8.143066,7.7219143,11.675246753654886
196695.53243014496,1.251491,6.089951,9.7176,11.536268142925683
196696.6882867633,2.4311945,5.080144,10.344542,11.778290153809689
196697.84414338166,1.9717562,7.2576904,5.360114,9.235405489066878
196699.0,-0.7202653,8.245961,1.9932925,8.513980849547485
196699.90900367155,-2.2589052,8.420644,2.371372,9.035115009766452
196701.06486028992,-5.647263,7.57834,5.6137624,10.99259499983615
196702.22071690825,-2.6465564,6.953791,8.549861,11.334001639729147
196703.37657352662,-4.527382,7.1236873,11.639105,14.377512779445905
196704.53243014496,2.4359803,5.83391,9.274912,11.224638012774937
196705.6882867633,0.24886245,8.312963,4.431666,9.423743942507405
196706.84414338166,4.1253734,7.805666,1.3711363,8.934603636768744
196708.0,-2.4551237,9.353878,0.4402951,9.680729610740592
196708.90900367155,-1.4046371,7.3079414,4.9341764,8.92889184808772
196710.06486028992,-6.712107,7.628591,7.748236,12.778221399569896
196711.22071690825,-5.1471453,7.1236873,11.148559,14.196140083275257
196712.37657352662,-3.2830698,7.4898024,7.6692705,11.211306672502008
196713.53243014496,-1.8592896,7.8463454,8.38475,11.632975823720658
196714.6882867633,0.0,7.5879116,4.9652843,9.068100717859338
196715.84414338166,0.2991135,6.7551794,6.745608,9.551185523364657
196717.0,1.1868824,6.1067014,5.460616,8.277609493063062
196718.90900367155,-1.0385221,6.551782,6.7838945,9.488182129093152
196720.06486028992,0.8040171,7.5328746,4.587205,8.85624598509112
196721.22071690825,-3.22564,9.164838,3.256748,10.247215061242152
196722.37657352662,-5.697514,10.30147,3.7425082,12.352664391464833
196723.53243014496,-11.160523,10.174645,7.3079414,16.777564841638608
196724.6882867633,-3.7353296,6.405815,9.061943,11.709225592246062
196725.84414338166,-1.8664683,5.8554463,9.19116,11.056553596518608
196727.0,5.6113696,5.4319015,7.6716633,10.947485578071035
196727.90900367155,1.4668527,8.0617075,5.3744717,9.799373995983338
196729.06486028992,4.4173083,7.032757,3.8071167,9.135995906616683
196730.22071690825,-2.3665862,8.971012,1.9980782,9.490632383539554
196731.37657352662,-3.1179593,7.554411,6.0373073,10.160702494808653
196732.53243014496,-8.013849,7.2265825,8.157424,13.527336646209529
196733.6882867633,-6.121059,7.575947,7.70995,12.42198314403904
196734.84414338166,-4.0296574,9.102622,2.1799393,10.190583957160808
196736.0,-0.75376606,8.518753,4.4292727,9.63097983588286
196736.90900367155,-1.4381378,8.427822,6.1425953,10.527483128224663
196738.06486028992,-1.902362,6.487174,11.1796665,13.064736917999621
196739.22071690825,-0.7441944,5.884161,8.32732,10.223572485257408
196740.37657352662,-2.0866158,7.150009,6.8604674,10.12633236385975
196741.53243014496,-0.31586388,8.485252,3.668328,9.249643334192763
196742.6882867633,-4.2067323,9.729565,4.393379,11.47444163219846
196743.84414338166,-3.5247536,10.205753,3.7281508,11.422801347535664
196745.0,-4.924605,9.2485895,4.9533195,11.589802250884848
196745.90900367155,1.0098072,6.5709257,5.7142644,8.7663899507836
196747.06486028992,-2.603484,5.9822702,9.6410265,11.641094349663451
196748.22071690825,1.7779307,4.893497,9.605133,10.92547163333009
196749.37657352662,-3.1203523,8.198103,5.4031863,10.302422698920482
196750.53243014496,0.2656128,8.205282,1.8880045,8.423880569610901
196751.6882867633,-5.783659,10.437865,-0.9212696,11.96864548987855
196752.84414338166,-5.1662884,10.265575,2.21344,11.70349873098637
196754.0,-7.7458434,9.868353,6.3124914,14.043860885988815
196754.90900367155,-2.1799393,5.467795,12.928883,14.205806317889827
196756.06486028992,-0.21057591,4.29527,15.479722,16.065972730714325
196757.22071690825,5.0657864,3.6061125,11.49553,13.06956193581029
196758.37657352662,0.5599405,9.155267,2.730308,9.57011123131248
196759.53243014496,0.6389065,10.31822,-0.2991135,10.342307980814752
196760.6882867633,-4.2856984,10.5862255,1.0863802,11.472384366449933
196761.84414338166,-4.941355,6.6498914,8.518753,11.883063474661235
196763.0,-0.5288327,5.4630094,8.444572,10.071491051093759
196764.90900367155,-1.0552725,6.824574,8.841795,11.218990558546578
196766.06486028992,0.7441944,8.097601,3.7090075,8.937656510251923
196767.22071690825,-4.1516957,9.736743,1.9573988,10.764392760192697
196768.37657352662,-2.9791706,7.965991,3.2136755,9.091764421457784
196769.53243014496,-6.867646,6.9226832,7.0088277,12.008820508158388
196770.6882867633,-1.5817122,6.2095966,7.032757,9.514230102294636
196771.84414338166,-5.3002915,9.1983385,6.511103,12.453793936875762
196773.0,-0.6197632,8.329713,8.126316,11.653550395407368
196773.90900367155,-3.8908687,8.571397,8.935119,12.97859997520571
196775.06486028992,1.8138243,6.831753,7.293584,10.156730537399104
196776.22071690825,-0.98109233,8.317748,5.6257267,10.089413999563192
196777.37657352662,2.7973096,5.6305127,5.484545,8.343131793285927
196778.53243014496,-0.911698,6.8221807,3.720972,7.824255579378813
196779.6882867633,2.88824,6.484781,2.8260245,7.640728328514321
196780.84414338166,-2.7350938,8.700614,2.6441634,9.49594767033254
196782.0,-5.415151,7.84156,7.5687685,12.16964174464447
196782.90900367155,-7.8942037,7.815238,6.200025,12.72150569132297
196784.06486028992,-5.4797597,8.109566,4.4986672,10.771760935634244
196785.22071690825,-3.072494,8.6551485,2.9289196,9.640040713625249
196786.37657352662,-0.21536173,5.915269,7.4586945,9.522022456465844
196787.53243014496,1.1150951,6.4991384,9.286877,11.389834126866273
196788.6882867633,-0.21057591,6.116273,10.739371,12.360713049822099
196789.84414338166,0.4498667,7.1739383,6.24549,9.522285236227477
196791.0,-3.7377224,8.834617,2.4000869,9.888450000060796
196791.90900367155,-6.101916,9.842031,2.3761578,11.821382278165183
196793.06486028992,-8.217246,9.05955,3.6420062,12.761770534994524
196794.22071690825,-5.3505425,9.667349,4.661385,11.992266335031601
196795.37657352662,-3.9387267,9.406522,6.2095966,11.939653013739907
196796.53243014496,0.9691278,6.369921,10.835088,12.606118919267653
196797.6882867633,0.0598227,5.0849295,13.457715,14.386458208907102
196798.84414338166,7.5879116,4.2785196,8.5642185,12.215890099896157
196800.0,1.6798215,8.834617,1.1055236,9.060598227418993
196801.90900367155,1.0504867,9.229446,0.18425392,9.290863537951047
196803.06486028992,-6.4919596,9.109801,2.0196145,11.367183311455983
196804.22071690825,-4.1995535,6.951398,5.312256,9.704547777372332
196805.37657352662,-3.649185,7.9564195,3.9937637,9.621398594572566
196806.53243014496,-1.3448143,7.5065527,6.4704237,10.001162022329378
196807.6882867633,-2.0937946,7.748236,5.860232,9.937879856010998
196808.84414338166,-2.2612982,6.369921,7.3318706,9.972245965213084
196810.0,-1.457281,6.5541754,5.1902175,8.486415072587034
196810.90900367155,-2.761416,6.4153867,8.403893,10.927397786803677
196812.06486028992,-2.7135577,6.5302463,7.7434506,10.48658854559162
196813.22071690825,-4.891104,7.42998,8.942298,12.613175439199281
196814.37657352662,-2.3546216,8.382357,3.3979294,9.346340244289202
196815.53243014496,-4.4388447,9.99757,1.9358627,11.108659350653857
196816.6882867633,-2.2852273,9.351485,3.4697168,10.232862267718282
196817.84414338166,-3.6802926,7.573554,7.891811,11.540535285343212
196819.0,2.2086542,5.6616206,7.702771,9.811461780589221
196820.90900367155,0.5623334,6.6546774,6.482388,9.307110418028268
196822.06486028992,0.7776951,7.1954746,5.4821525,9.079298454234523
196823.22071690825,-5.860232,8.305784,4.0966587,10.959515475273788
196824.37657352662,-3.4433947,8.028207,3.0940301,9.26725940904554
196825.53243014496,-6.0229497,9.262947,3.1682103,11.494157938647145
196826.6882867633,0.37090075,6.432137,6.1043086,8.875389413268216
196827.84414338166,-0.2943277,6.6283555,8.954262,11.144529303385205
196829.0,4.7547083,4.9868207,10.167466,12.282222786336085
196829.90900367155,1.0433079,7.4634805,7.1524024,10.389845650422744
196831.06486028992,1.9885067,7.396479,3.6396132,8.479908297794271
196832.22071690825,-4.189982,9.327556,-1.1916683,10.294625949041805
196833.37657352662,-6.013378,9.0428,2.2947989,11.099506691845598
196834.53243014496,-7.764987,9.078693,3.5630403,12.466472872382232
196835.6882867633,-6.9705415,8.707792,7.0351496,13.187396263586924
196836.84414338166,-4.0990515,8.021028,6.274205,10.977466090062007
196838.0,-2.029186,6.5422106,10.885339,12.861132162538
196838.90900367155,1.6558924,4.9772487,12.919311,13.94358565709518
196840.06486028992,0.83751786,4.7547083,14.106194,14.909506911683696
196841.22071690825,3.6085055,5.5946193,6.401029,9.235488580162055
196842.37657352662,-0.06460852,9.033228,-1.8880045,9.22864796992825
196843.53243014496,-2.0244002,11.624747,-5.6089764,13.06497436811592
196844.6882867633,-5.2476473,10.488116,-2.0220072,11.900709749065605
196845.84414338166,-2.4096584,7.597483,5.7118716,9.80579821915922
196847.0,-4.4651666,6.168917,12.962383,15.033849232892207
196847.90900367155,-0.2991135,3.9913707,13.706577,14.279032250388319
196849.06486028992,-4.240233,6.9920774,9.01887,12.174101130628896
196850.22071690825,-0.27518442,7.9492407,2.9337053,8.477781605986044
196851.37657352662,-4.2234826,10.1435375,-1.2802058,11.062010901131975
196852.53243014496,-1.9430413,9.571632,1.8210031,9.93516989925886
196853.6882867633,-2.0172215,7.9061685,4.8456388,9.489831310962273
196854.84414338166,1.4979604,6.6809993,9.542917,11.745079900769412
196856.0,-0.7489802,7.492195,9.478309,12.105052612752164
196856.90900367155,-1.5290682,6.664249,10.354114,12.40797892564491
196858.06486028992,-5.053822,7.5376606,6.046879,10.905145105367344
196859.22071690825,-3.5630403,7.0471144,4.3407354,9.011052178237822
196860.37657352662,-1.5793194,6.867646,2.7925239,7.580039649012633
196861.53243014496,-2.2038684,7.085401,8.444572,11.241474081209438
196862.6882867633,-0.97152066,7.324692,6.197632,9.643941502056865
196863.84414338166,-1.6798215,8.49961,6.015771,10.547732986210983
196865.0,-0.3828653,8.918368,3.256748,9.502119824379825
196866.90900367155,-3.2711053,8.23639,6.0827723,10.748877567887513
196868.06486028992,-4.3862004,7.573554,5.8458743,10.524814510065088
196869.22071690825,-7.054293,8.188532,6.7575727,12.746760170359302
196870.37657352662,-1.2108115,7.418015,4.5919905,8.80791619969488
196871.53243014496,-2.7470584,8.375178,5.15911,10.213048143272143
196872.6882867633,-1.6678569,9.411307,5.23329,10.896869748291325
196873.84414338166,-7.0710435,9.686492,8.092815,14.46794519167049
196875.0,-0.37329367,6.475209,7.4563017,9.882515610873881
196875.90900367155,-1.0600582,7.1739383,5.7310147,9.24303216543198
196877.06486028992,2.4168372,7.50416,3.254355,8.529029594445598
196878.22071690825,-2.677664,10.011928,-0.67001426,10.385446831151915
196879.37657352662,-3.462538,9.581204,2.3259068,10.449807746238504
196880.53243014496,-8.044957,7.4898024,8.391929,13.829061626297563
196881.6882867633,-4.4843097,5.3266134,12.404836,14.225392788442422
196882.84414338166,-2.2469406,5.8434815,9.246197,11.166341256811902
196884.0,0.39482984,7.6070547,6.1282377,9.776424147869598
196884.90900367155,-0.5072965,9.219875,1.251491,9.31824417353496
196886.06486028992,-0.33979294,8.968619,3.8860826,9.780246621801394
196887.22071690825,-0.96194905,7.312727,5.6089764,9.266171723375402
196888.37657352662,-1.6319634,5.996628,8.700614,10.692218473559151
196889.53243014496,-3.175389,7.9994917,4.2330546,9.59133536095319
196890.6882867633,-6.412994,10.191396,3.8286529,12.63525336119266
196891.84414338166,-9.258162,11.483566,2.574769,14.973820056951432
196893.0,-8.925548,10.157895,6.3435993,14.9361805696868
196893.90900367155,-2.5340896,7.650127,7.2768335,10.858101077245479
196895.06486028992,0.5168682,5.934412,10.985841,12.496923661413486
196896.22071690825,5.3649,5.671192,8.772401,11.743065614040697
196897.37657352662,3.4721096,6.8102164,6.1545596,9.813928691364804
196898.53243014496,3.7401154,7.7889156,1.5721406,8.782214726104622
196899.6882867633,-2.0483294,8.839402,0.16989647,9.075216022719614
196900.84414338166,-6.7336435,8.298605,3.512789,11.249377151186561
196902.0,-11.057629,7.8559175,6.2383113,14.929940614220639
196903.90900367155,-6.3675284,8.155031,5.8004093,11.861479527583986
196905.06486028992,-3.2639267,8.293819,6.539818,11.054857329737814
196906.22071690825,3.5606472,6.5182815,7.2457256,10.376258558199359
196907.37657352662,0.7489802,7.255297,7.8319883,10.702352387654685
196908.53243014496,2.8571322,6.3675284,7.865489,10.5154429075624
196909.6882867633,-2.81406,7.8487387,4.4220943,9.438037447614319
196910.84414338166,-1.2443122,7.3557997,3.0916374,8.075538613037999
196912.0,-6.0755935,8.813081,3.6826856,11.32013278712978
196912.90900367155,-2.445552,6.831753,8.813081,11.415952450421035
196914.06486028992,-0.27279153,5.9248405,11.14138,12.621747045226346
196915.22071690825,3.309392,5.616155,9.0475855,11.151326189000986
196916.37657352662,1.0074143,8.798723,-0.48097453,8.869258509090951
196917.53243014496,-0.019143265,10.026285,-3.3357139,10.566633550401617
196918.6882867633,-6.7862873,9.389771,-0.2584341,11.588282139067253
196919.84414338166,-7.958812,5.915269,9.827674,13.96124178015627
196921.0,-4.249805,4.967677,9.880318,11.847334767595537
196921.90900367155,-2.7015932,7.6644845,8.583362,11.820195924436721
196923.06486028992,-2.2828343,10.074143,5.6305127,11.764453361315466
196924.22071690825,-3.5989337,8.865725,8.863332,13.042701318931009
196925.37657352662,1.4931747,6.116273,8.016242,10.193061458551748
196926.53243014496,1.849718,5.534796,8.679078,10.458576307089986
196927.6882867633,2.8786685,6.2287397,5.384043,8.721917771287307
196928.84414338166,-0.035893623,7.3390493,3.7472942,8.24045792425131
196930.0,1.9645776,7.8559175,1.6032485,8.255023359505428
196930.90900367155,-3.1921394,8.013849,5.2452545,10.095752795785147
196932.06486028992,-2.6513422,6.719286,4.2234826,8.367569843377442
196933.22071690825,-7.628591,9.169623,-0.67240715,11.94694596885669
196934.37657352662,-7.686021,10.6771555,-0.80880296,13.180695376637987
196935.53243014496,-7.992313,7.9492407,5.4247227,12.509800604661962
196936.6882867633,-1.4189945,4.5034533,10.892518,11.871882133707155
196937.84414338166,-0.7059079,5.4199367,10.789622,12.095038763814413
196939.0,3.254355,5.5252247,11.753964,13.389346666839689
196940.90900367155,-2.1799393,6.7408223,12.345013,14.233417249628802
196942.06486028992,-0.6843717,6.3794928,8.1526375,10.374574266706995
196943.22071690825,-1.3304569,9.43763,-1.0624512,9.589983218548355
196944.37657352662,-0.011964541,11.6223545,-2.9073834,11.980490203180635
196945.53243014496,-5.0442505,11.81618,0.5072965,12.857835068084459
196946.6882867633,-0.9499845,7.324692,5.996628,9.513838910528612
196947.84414338166,-1.2802058,7.3845143,6.7264647,10.070516654948952
196949.0,1.9908996,5.8745894,7.181117,9.489094962300753
196949.90900367155,-3.596541,8.037778,5.4534373,10.357652278725922
196951.06486028992,-4.9389625,7.5591965,3.0437791,9.528871575985024
196952.22071690825,-7.8128448,8.396714,-0.8997334,11.50455866418867
196953.37657352662,-7.106937,7.834381,4.1732316,11.371101141154648
196954.53243014496,-6.2861695,7.810452,6.690571,12.053332640107268
196955.6882867633,-4.3909864,7.9300976,10.555118,13.913221248310354
196956.84414338166,-0.86623275,8.781973,7.4395514,11.542111331257534
196958.0,-0.48097453,8.226818,10.217717,13.126827933500223
196958.90900367155,1.8090385,6.5039244,10.722621,12.670763749870748
196960.06486028992,-0.6580497,6.197632,11.021734,12.661843948724455
196961.22071690825,0.90691215,6.6522846,5.1950035,8.489018872179932
196962.37657352662,-2.5101607,8.971012,-0.4139731,9.32477006534167
196963.53243014496,-4.2091255,11.411778,-3.438609,12.639993926063227
196964.6882867633,-6.0875583,9.605133,1.3304569,11.449325812743103
196965.84414338166,-0.51926106,5.4534373,7.2816195,9.112167304008628
196967.0,-2.8164527,5.1519313,13.251925,14.494423691091757
196967.90900367155,0.3804724,5.5587254,12.019577,13.24818548249895
196969.06486028992,-4.5943837,9.284483,5.0322857,11.51667858049964
196970.22071690825,-2.3522286,9.657777,-0.03828653,9.94017614666694
196971.37657352662,-6.824574,9.810924,0.51208234,11.962076255324236
196972.53243014496,-2.2062612,7.6692705,5.747765,9.834739497313626
196973.6882867633,-3.0030997,7.630984,10.296683,13.16329006817388
196974.84414338166,1.3639576,6.642713,11.031306,12.948966306257915
196976.0,-2.6178415,9.418487,6.484781,11.730872776833454
196977.90900367155,0.859054,8.411072,4.319199,9.494186956538249
196979.06486028992,-1.8975761,7.887025,3.070101,8.67360816247294
196980.22071690825,0.57908374,5.4582233,5.616155,7.852944451262869
196981.37657352662,-2.0961876,6.0995226,5.099287,8.221977031752978
196982.53243014496,-3.0748868,7.1189017,6.1234517,9.880807202314497
196983.6882867633,-3.854975,8.569004,1.014593,9.450823284682134
196984.84414338166,-5.2643976,9.887496,1.978935,11.375088701857527
196986.0,-6.4991384,8.973405,1.0385221,11.128311884044585
196986.90900367155,-4.0727296,6.7527866,7.159581,10.651143288652948
196988.06486028992,-1.3065279,6.008592,7.7745585,9.91231319349145
196989.22071690825,-0.8159817,5.754944,11.485959,12.872935202491771
196990.37657352662,0.3613291,6.458459,9.389771,11.40219499945641
196991.53243014496,-0.72983694,6.9848986,9.684099,11.962576806569373
196992.6882867633,-2.2086542,8.1119585,4.742744,9.652753220218358
196993.84414338166,-6.24549,9.442415,3.175389,11.75790974934091
196995.0,-3.0653152,9.686492,1.1677392,10.226822545670364
196995.90900367155,-2.5484471,9.332341,5.5012956,11.128855486543024
196997.06486028992,2.0435436,7.3294773,6.5158887,10.017690027501546
196998.22071690825,-0.22732627,7.609448,7.410836,10.624305451022769
196999.37657352662,2.5819478,7.0423284,5.5563326,9.334542072174411
197000.53243014496,-3.0748868,7.9564195,3.7425082,9.314821937099051
197001.6882867633,-6.3435993,7.678842,3.4027152,10.5254138765293
197002.84414338166,-9.736743,7.7003784,4.4101295,13.173808635243105
197004.0,-4.551311,6.6283555,5.977484,10.018974170211102
197004.90900367155,-0.8614469,5.541975,9.011692,10.614432173461216
197006.06486028992,6.2550616,4.357486,9.679314,12.320819752377947
197007.22071690825,2.6944146,6.850896,7.286405,10.357912138241671
197008.37657352662,3.2687125,6.812609,5.7453723,9.49238777442981
197009.53243014496,-3.8932614,7.547232,5.503689,10.11972271355668
197010.6882867633,-4.630277,6.0732007,5.520439,9.423294465946105
197011.84414338166,-8.456537,8.356035,1.0792016,11.937378901879447
197013.0,-8.839402,11.395028,1.4381378,14.493099432839644
197013.90900367155,-8.502003,12.376121,1.6080343,15.100933756845187
197015.06486028992,-3.6659353,9.746315,7.681235,12.939517333665737
197016.22071690825,1.0863802,6.4297442,11.313669,13.058366615237402
197017.37657352662,4.6039553,3.5008245,13.936296,15.088821119750024
197018.53243014496,2.3378713,5.283541,9.507024,11.124969799986905
197019.6882867633,1.2323477,6.5733185,4.2091255,7.902147456918771
197020.84414338166,-3.8693323,9.176803,-1.4357449,10.06214734370891
197022.0,-5.412758,9.0428,1.0313433,10.589327174519582
197023.90900367155,-3.649185,8.265104,2.861918,9.477292331344696
197025.06486028992,-1.3160994,6.6235695,9.401736,11.575682717045531
197026.22071690825,-0.96434194,6.645106,10.193789,12.206585243424959
197027.37657352662,-1.9956853,6.850896,9.961677,12.253674733392472
197028.53243014496,-0.48336744,7.8559175,3.7903664,8.735900714586183
197029.6882867633,-1.3974583,7.992313,3.7401154,8.934115512770418
197030.84414338166,0.75376606,6.9131117,2.708772,7.463023676625233
197032.0,-4.3359494,8.226818,6.7719297,11.503913397893191
197032.90900367155,-1.9932925,7.97317,3.7831876,9.04749486080263
197034.06486028992,-4.6159196,9.54531,2.8260245,10.972970027497771
197035.22071690825,-4.6207056,9.578811,3.5462897,11.210740878814319
197036.37657352662,-6.200025,7.243333,9.597955,13.528744329446804
197037.53243014496,-1.2802058,4.5680614,10.610154,11.622455839805957
197038.6882867633,-2.057901,5.206968,10.593404,11.981973150781178
197039.84414338166,2.1536174,5.90809,7.049507,9.446647251630164
197041.0,-2.6226273,8.923154,0.90451926,9.344463941507412
197041.90900367155,-4.563276,11.014556,-0.41875893,11.929764908445042
197043.06486028992,-7.3222985,10.780051,0.80880296,13.056788162247559
197044.22071690825,-1.9932925,7.57834,5.6831565,9.680016526310713
197045.37657352662,-0.61497736,5.659228,11.143773,12.513542079875927
197046.53243014496,5.541975,3.6252558,12.881024,14.483671696245901
197047.6882867633,0.055036888,7.5879116,8.298605,11.244833322663359
197048.84414338166,2.680057,8.164602,2.5604117,8.966556720121158
197050.0,-2.5340896,10.100465,-4.338342,11.281055563466442
197050.90900367155,-4.5776334,9.7415285,-0.13400285,10.76429569572092
197052.06486028992,-7.992313,8.097601,4.4364514,12.211892157636013
197053.22071690825,-5.003571,7.24094,7.91574,11.837477543093419
197054.37657352662,-3.5271466,8.403893,7.748236,11.962497306375312
197055.53243014496,0.93323416,7.049507,10.2344675,12.46237537345895
197056.6882867633,1.0648441,7.2840123,6.563747,9.862733030142563
197057.84414338166,-0.39961565,6.6546774,7.65252,10.149161852891877
197059.0,-1.6152129,5.7118716,5.4199367,8.038041037418251
197060.90900367155,-2.837989,6.2095966,5.7932305,8.954037699551126
197062.06486028992,-2.1799393,8.04735,2.395301,8.67464375376796
197063.22071690825,-3.9195836,10.150716,3.907619,11.561559460522872
197064.37657352662,-5.386436,11.75875,1.9358627,13.077823165108452
197065.53243014496,-6.121059,10.772872,5.106466,13.401422663994333
197066.6882867633,-3.1993182,8.0306,5.223718,10.100168466336353
197067.84414338166,-2.08183,5.2931128,11.268204,12.622340537635635
197069.0,1.3735292,3.8286529,12.900167,13.526251295899394
197069.90900367155,0.64369226,4.9150333,10.468973,11.5832330435169
197071.06486028992,1.3304569,8.296212,1.9693633,8.629927051782564
197072.22071690825,-1.0265576,10.547939,-3.9243693,11.301040308600852
197073.37657352662,-5.0203214,12.088972,-2.1057591,13.258246202394748
197074.53243014496,-6.3483853,7.922919,6.9968634,12.33007456733643
197075.6882867633,-2.4910173,4.7714586,13.299783,14.347690134913782
197076.84414338166,-1.7133222,4.529775,14.642204,15.422336803780865
197078.0,0.92366254,6.953791,9.973641,12.193517808916393
197078.90900367155,-2.1440456,10.181824,1.9956853,10.59477377382318
197080.06486028992,-0.63651353,11.064807,-3.1036017,11.509450331504322
197081.22071690825,-2.8690968,9.686492,-1.6534995,10.236889386446181
197082.37657352662,-3.773616,8.267497,5.3002915,10.52068316914055
197083.53243014496,-5.2955055,6.8413243,8.825045,12.358297452736997
197084.6882867633,-5.199789,8.5546465,8.636005,13.221208898754616
197085.84414338166,-4.113409,8.059315,6.7336435,11.278947054384032
197087.0,-0.088537596,6.6044264,7.193082,9.765588340578688
197087.90900367155,-1.2849916,6.140202,9.286877,11.207112403558892
197089.06486028992,2.759023,5.0322857,8.633613,10.367033361320031
197090.22071690825,-1.5123179,8.674292,2.316335,9.10471608366507
197091.37657352662,-1.3711363,10.97627,-0.99784267,11.106493949944348
197092.53243014496,-6.300527,12.158366,0.035893623,13.693932693709906
197093.6882867633,-3.5391111,7.5639825,8.4541445,11.883252831835637
197094.84414338166,-2.9002047,5.230897,12.189474,13.577803471960666
197096.0,1.7037506,4.5680614,10.196181,11.301860822268663
197097.90900367155,-1.1294526,9.332341,3.048565,9.882408627209903
197099.06486028992,-2.5125535,9.5500965,2.0435436,10.084311513176072
197100.22071690825,-5.8674107,8.959048,2.2995846,10.953498925975008
197101.37657352662,-2.8786685,7.0183992,6.427351,9.942610348427312
197102.53243014496,-0.72983694,6.9370403,7.7243075,10.407695058819167
197103.6882867633,-0.8829831,7.5639825,11.057629,13.42626714752961
197104.84414338166,-0.48336744,8.877689,4.450809,9.942671010209185
197106.0,-2.4479449,9.909033,3.1897464,10.693729532994464
197106.90900367155,-2.4934103,7.741058,2.500589,8.508467501873124
197108.06486028992,-5.2691836,5.9224477,7.650127,11.016538734369941
197109.22071690825,-3.933941,6.6522846,5.305077,9.374039906401464
197110.37657352662,-5.9822702,9.253376,4.6900997,11.975373035489296
197111.53243014496,-6.1617384,10.44983,3.2663195,12.563232474765991
197112.6882867633,-7.1284733,10.167466,7.741058,14.632719344309617
197113.84414338166,-0.067001425,7.3845143,7.075829,10.227555752724966
197115.0,1.8616825,6.4967456,8.667113,10.990560171196671
197115.90900367155,5.0131426,5.958341,6.357957,10.052713236438448
197117.06486028992,0.2680057,7.4084435,7.2840123,10.392963837831633
197118.22071690825,1.2610626,6.401029,5.9487696,8.829003958196186
197119.37657352662,-4.1612673,7.729093,5.6065836,10.415795879743767
197120.53243014496,-1.797074,7.1739383,3.2232473,8.06747722963258
197121.6882867633,-6.2598476,10.074143,-0.70830077,11.881739735428367
197122.84414338166,-8.303391,11.847288,0.33500713,14.471239229277355
197124.0,-10.521617,11.23231,4.893497,16.149784057992786
197124.90900367155,-3.9004402,6.819788,12.201438,14.511996119988593
197126.06486028992,0.7059079,4.0248713,15.43665,15.968345505009156
197127.22071690825,8.492431,2.5986981,13.153816,15.871278822658262
197128.37657352662,5.9511623,5.826731,5.709479,10.097785763163293
197129.53243014496,4.3598785,8.418251,0.09571633,9.48075166058008
197130.6882867633,-2.6656997,9.959284,-4.63267,11.302872378830795
197131.84414338166,-7.8750606,9.650599,1.2179902,12.515356193084134
197133.0,-11.246668,8.109566,5.879375,15.060532932177564
197133.90900367155,-10.660405,8.6551485,8.793938,16.30610854461975
197135.06486028992,-8.525931,9.035621,8.289034,14.934591756240208
197136.22071690825,-2.4024796,7.9324903,9.516596,12.619901347285811
197137.37657352662,0.8040171,6.893968,10.1339655,12.282935114918855
197138.53243014496,5.2931128,5.2978983,8.279462,11.163971538843636
197139.6882867633,4.2833056,7.0423284,2.3570144,8.573016565844561
197140.84414338166,4.6278844,8.078458,1.3735292,9.410918134846353
197142.0,-1.0385221,8.372786,2.7446656,8.872162239826759
197143.90900367155,-3.0581365,6.4177794,7.336656,10.21599787304366
197145.06486028992,-4.42688,6.925076,6.3148847,10.364927057846094
197146.22071690825,-4.331164,7.5687685,5.8626246,10.5078830123871
197147.37657352662,-6.4464946,9.112194,3.9100118,11.826984586005192
197148.53243014496,-5.0897155,8.166995,4.9317837,10.813302070346085
197149.6882867633,-1.2084186,7.70995,2.8451676,8.306538580384474
197150.84414338166,0.2991135,7.2217965,7.255297,10.241247391382727
197152.0,0.4402951,7.3007627,7.554411,10.51494751930395
197152.90900367155,-3.6228628,8.6048975,10.337363,13.929482030818628
197154.06486028992,-1.5027462,7.7937016,5.0657864,9.416061948706687
197155.22071690825,-2.8236315,8.233996,5.7405863,10.42717200604056
197156.37657352662,0.12203831,6.482388,4.374236,7.821137264832248
197157.53243014496,-3.254355,6.917897,7.903775,10.99626230222156
197158.6882867633,-0.21057591,6.7910733,5.003571,8.437934672174597
197159.84414338166,-2.6633067,8.480466,3.5750046,9.580822722785452
197161.0,-4.3120203,9.82528,2.4335876,11.002363144019826
197161.90900367155,-8.19571,10.119608,5.2213254,14.029909743489055
197163.06486028992,-3.175389,7.523303,6.7527866,10.596381938957729
197164.22071690825,-0.98827106,6.252669,9.566847,11.471578393272807
197165.37657352662,5.3002915,5.3074703,7.9013824,10.894685621961933
197166.53243014496,2.2182257,6.987292,6.712107,9.939575198611532
197167.6882867633,3.4170728,7.1236873,3.62047,8.690863610112698
197168.84414338166,-2.3641932,9.313198,0.4785816,9.62050449934871
197170.0,-5.5395823,8.781973,2.3857293,10.653718887040375
197170.90900367155,-10.162681,8.320142,6.3172774,14.5743899274198
197172.06486028992,-6.264633,7.686021,7.5328746,12.4524995553686
197173.22071690825,-3.0772798,7.8319883,7.379729,11.192412242777065
197174.37657352662,2.5293038,7.4586945,5.6329055,9.682929604667946
197175.53243014496,-0.8542682,8.7556505,5.436687,10.341603133540296
197176.6882867633,0.63172776,7.305548,6.17131,9.584110739090956
197177.84414338166,-4.2593765,8.155031,4.242626,10.131470483379461
197179.0,-4.8719606,7.6261983,5.675978,10.682304379456674
197180.90900367155,-7.7267003,8.413465,6.8150024,13.301599473155507
197182.06486028992,-4.187589,7.63577,8.664721,12.284879939733315
197183.22071690825,-1.3448143,6.882004,11.014556,13.057218250249036
197184.37657352662,4.850425,6.09713,9.291662,12.12586490275102
197185.53243014496,3.0054924,7.757808,4.551311,9.483195735090716
197186.6882867633,4.343128,7.7195215,0.9786994,8.91132007779468
197187.84414338166,-3.0150642,10.519224,-1.8425392,11.096830015632134
197189.0,-4.582419,8.815474,1.4668527,10.043047474732672
197189.90900367155,-8.5642185,9.030835,3.5247536,12.93544383674871
197191.06486028992,-7.97317,8.628826,7.5879116,13.985867167844495
197192.22071690825,-4.7451367,7.085401,9.425665,12.710719504603698
197193.37657352662,-1.5266753,6.9083257,11.08395,13.14951136169746
197194.53243014496,0.73701566,7.523303,5.412758,9.29737754850572
197195.6882867633,1.170132,8.286641,3.6132913,9.115563722500143
197196.84414338166,-1.2921704,8.834617,2.3618002,9.235705823814724
197198.0,-2.8762755,7.386907,7.2792263,10.762271660999872
197199.90900367155,-4.7547083,7.889418,7.4060507,11.81946506267451
197201.06486028992,-5.2739697,8.908797,8.300998,13.269814926355647
197202.22071690825,-1.8186102,8.492431,5.173467,10.109079490705078
197203.37657352662,-2.1416528,8.865725,7.808059,12.006395872153051
197204.53243014496,1.1055236,7.6214123,4.5704546,8.955286881357258
197205.6882867633,-0.46183127,7.499374,6.070808,9.659638103298168
197206.84414338166,0.3326142,6.556568,4.3670573,7.884821215864627
197208.0,-3.8477962,6.8389316,7.4658732,10.83124109530811
197208.90900367155,-4.57524,7.2337613,6.2550616,10.601222534348208
197210.06486028992,-6.7791085,9.459166,5.7932305,12.999755886033341
197211.22071690825,-3.5008245,9.98082,4.4914885,11.49112740325476
197212.37657352662,-1.6750357,9.0571575,6.613998,11.339436322855063
197213.53243014496,0.72744405,8.17896,5.881768,10.10048297524947
197214.6882867633,-1.354386,7.5137315,7.748236,10.877760964591207
197215.84414338166,1.5721406,6.2048106,6.558961,9.164675119586168
197217.0,-0.7322299,6.606819,6.800645,9.509731349582912
197217.90900367155,1.5434257,6.046879,5.4079723,8.257909719149803
197219.06486028992,-2.500589,7.755415,3.35725,8.813088830350344
197220.22071690825,-1.8616825,8.951869,1.430959,9.254699562041345
197221.37657352662,-5.309863,9.535739,2.4670882,11.189793900759264
197222.53243014496,-7.238547,9.82528,5.0394645,13.203366699307008
197223.6882867633,-7.6261983,8.85376,6.982506,13.612617554627723
197224.84414338166,-5.1375737,8.490038,6.197632,11.699831245441093
197226.0,-3.0581365,7.552018,6.561354,10.461192142307311
197226.90900367155,1.3519931,6.3914576,8.468502,10.695519703083594
197228.06486028992,0.92605543,5.9798775,11.328027,12.842924483433194
197229.22071690825,4.4651666,4.91264,9.5907755,11.664249621246785
197230.37657352662,1.1988469,7.575947,3.3524642,8.37085557447566
197231.53243014496,-0.5886554,9.576418,0.2632199,9.598103021244833
197232.6882867633,-6.0875583,9.7917795,1.1797037,11.590039372336612
197233.84414338166,-3.1682103,7.243333,5.0945015,9.405178094401899
197235.0,-2.112938,6.2048106,7.6573057,10.079608730351037
197236.90900367155,1.6822144,5.7166576,8.561825,10.43143646550321
197238.06486028992,-2.6321988,8.406286,5.912876,10.60925150177398
197239.22071690825,0.21296883,7.585519,3.644399,8.418259813828126
197240.37657352662,-2.988742,9.272519,0.86623275,9.78072321073946
197241.53243014496,-2.3522286,7.9277043,3.3500714,8.922132774174257
197242.6882867633,-7.0136137,9.260554,4.343128,12.402072340706923
197243.84414338166,-4.824103,8.904011,6.609212,12.092769116446158
197245.0,-4.5225964,9.408915,7.42998,12.813514836878989
197245.90900367155,1.2347406,5.963127,9.6410265,11.403195163686345
197247.06486028992,2.3594074,5.312256,10.0837145,11.639079225016943
197248.22071690825,4.929391,4.168446,8.693435,10.828233918096801
197249.37657352662,0.4498667,7.2457256,4.2091255,8.391642091570308
197250.53243014496,-0.4091873,7.5065527,2.3330853,7.871407415541053
197251.6882867633,-3.62047,8.920761,-1.430959,9.733212393639729
197252.84414338166,-6.432137,9.736743,2.1966896,11.87442612649412
197254.0,-7.9635983,9.085872,3.1131735,12.47653065259927
197254.90900367155,-6.8413243,8.009064,8.449359,13.503351133875897
197256.06486028992,-3.8095098,6.58289,10.818337,13.224341991719854
197257.22071690825,1.8616825,3.7449012,11.753964,12.475809249979084
197258.37657352662,0.8231604,6.9083257,6.5254602,9.538563195953188
197259.53243014496,-0.016750356,9.167231,3.3189635,9.749560169367609
197260.6882867633,-4.0440145,11.064807,-0.5240469,11.792312427037322
197261.84414338166,-6.5158887,9.554882,4.2282686,12.313847121775455
197263.0,-1.9215052,6.2622404,6.949005,9.549686254063229
197263.90900367155,0.48815325,5.185432,12.086578,13.161016920139323
197265.06486028992,3.1299238,5.6185484,10.306255,12.148390891059359
197266.22071690825,0.45704544,7.001649,6.975327,9.893794318175145
197267.37657352662,0.5695121,8.506788,0.45943835,8.538200612918459
197268.53243014496,-2.8499537,9.160052,-1.1725249,9.664553966736785
197269.6882867633,-6.6594634,8.753258,0.8638398,11.032415764036797
197270.84414338166,-9.461558,8.068886,6.2072034,13.898106889692983
197272.0,-6.5206747,8.040172,7.3462276,12.693723814697004
197272.90900367155,-3.6802926,8.207675,10.562296,13.87344871756319
197274.06486028992,2.708772,7.001649,8.89444,11.639226665925232
197275.22071690825,1.2538838,6.877218,9.901854,12.120852471701092
197276.37657352662,3.0246358,5.367293,7.7458434,9.8971887850952
197277.53243014496,-0.96434194,6.3938503,5.9679127,8.79927605152119
197278.6882867633,-0.64129937,6.408208,3.9770133,7.569215906657921
197279.84414338166,-5.3529353,8.497216,4.0727296,10.837145494610574
197281.0,-3.0892444,8.379964,3.2639267,9.508966563575678
197282.90900367155,-5.0442505,9.387379,3.2639267,11.145427990856346
197284.06486028992,-3.7137933,10.045428,4.5154176,11.622903272448697
197285.22071690825,-6.094737,9.662563,5.865018,12.84170467533271
197286.37657352662,-0.6221561,6.092344,7.9324903,10.021383935699564
197287.53243014496,-1.8880045,5.728622,9.401736,11.170242200803
197288.6882867633,2.658521,5.1662884,7.6214123,9.583537717670174
197289.84414338166,-1.0696299,8.600112,2.8690968,9.128951253199254
197291.0,0.25125536,9.095444,0.57429796,9.117019741117428
197291.90900367155,-3.412287,9.492666,-1.3902797,10.182695517502086
197293.06486028992,-4.7953877,9.308413,2.8523464,10.852565399824746
197294.22071690825,-7.70995,8.813081,6.484781,13.385294555332804
197295.37657352662,-6.6044264,7.238547,10.0837145,14.060451943722727
197296.53243014496,-3.3357139,5.7669086,10.624512,12.540513436919206
197297.6882867633,2.6154485,4.668564,10.102858,11.432576282116479
197298.84414338166,2.1751535,6.034914,9.320377,11.31463243583667
197300.0,5.068179,5.5443683,8.155031,11.087424806195841
197300.90900367155,0.3230426,8.260319,3.0820656,8.822491420561379
197302.06486028992,-0.677193,9.145695,2.5125535,9.508693521332795
197303.22071690825,-5.1830387,9.490273,1.6678569,10.941248485392528
197304.37657352662,-3.0342073,7.3557997,4.1516957,8.975008654663899
197305.53243014496,-3.926762,7.884632,5.3026843,10.281310342827634
197306.6882867633,-0.9763065,6.439316,6.7312503,9.366306397457235
197307.84414338166,-5.5515466,9.375414,3.050958,11.314875255217421
197309.0,-5.305077,9.466345,4.194768,11.634071007552688
197309.90900367155,-2.392908,7.217011,3.699436,8.45559478621587
197311.06486028992,-1.3615648,5.709479,8.542682,10.364816684783385
197312.22071690825,0.004785816,4.8288884,8.097601,9.428113705237667
197313.37657352662,-2.526911,7.8248096,8.322535,11.69946636836049
197314.53243014496,-2.4934103,8.676684,4.1062303,9.91781565853289
197315.6882867633,-1.7803236,8.049743,4.1780176,9.242496716400591
197316.84414338166,-0.7489802,8.119137,1.8903974,8.369884066980127
197318.0,-3.0748868,8.490038,5.6568346,10.655301580247055
197319.90900367155,-5.7812657,8.679078,6.7862873,12.441990328810812
197321.06486028992,-6.5302463,8.636005,9.073908,14.126588600619495
197322.22071690825,-2.0148287,7.379729,7.0279713,10.388085261365946
197323.37657352662,1.7133222,6.458459,9.212696,11.380726391760318
197324.53243014496,4.405344,5.790838,7.4323726,10.401010670401735
197325.6882867633,2.2206187,6.3986363,7.267262,9.93412255245079
197326.84414338166,1.5242825,7.5615897,3.936334,8.660011621846031
197328.0,-0.46422416,7.5209103,3.017457,8.116935539858796
197328.90900367155,-1.6056414,7.461087,2.5460541,8.04538967403629
197330.06486028992,-5.1973963,8.348856,4.187589,10.688883311221556
197331.22071690825,-4.9820347,8.803509,2.8427749,10.50732171379344
197332.37657352662,-8.411072,10.189003,5.1160374,14.168124540721392
197333.53243014496,-6.9394336,9.267733,3.7784019,12.178790357257224
197334.6882867633,-6.2095966,8.939904,5.281148,12.098408889678492
197335.84414338166,-2.290013,7.3773355,5.790838,9.654172329204261
197337.0,-1.3113136,5.7405863,11.351956,12.788306355856065
197337.90900367155,2.0172215,4.5106316,13.098779,13.999749687113045
197339.06486028992,0.5431901,5.7118716,12.51491,13.767479978838704
197340.22071690825,2.0770442,7.2217965,7.7267003,10.778235236910817
197341.37657352662,0.7106937,9.114587,0.8566611,9.18230090750907
197342.53243014496,-2.4144442,11.768322,-2.4575167,12.262231926585654
197343.6882867633,-5.9679127,10.14593,2.0985804,11.956584681880752
197344.84414338166,-3.1371026,6.544604,7.0351496,10.107748717401067
197346.0,-2.8595252,5.4821525,10.753729,12.404578501832793
197346.90900367155,0.98827106,5.678371,9.468738,11.085015841861415
197348.06486028992,-1.4979604,7.872668,6.2095966,10.13813970770396
197349.22071690825,1.2012398,8.159817,2.605877,8.649634990548563
197350.37657352662,-1.3208853,8.478073,2.0267932,8.81648174980538
197351.53243014496,-1.1079165,7.0710435,3.460145,7.949826323316095
197352.6882867633,-4.6996713,7.7386646,3.6874714,9.776056743143158
197353.84414338166,-6.374707,9.906639,4.345521,12.556350519701615
197355.0,-7.729093,10.346934,5.21654,13.928754839346013
197356.90900367155,-5.1375737,8.633613,8.59054,13.218597295034778
197358.06486028992,-1.9143264,6.164131,11.995648,13.62192084438909
197359.22071690825,3.9626558,4.2833056,11.287348,12.706438239151403
197360.37657352662,2.0890088,6.439316,7.425194,10.047997524480659
197361.53243014496,3.8214743,7.2959766,3.1825678,8.82970430846384
197362.6882867633,-1.1892753,9.94014,-2.2995846,10.271750011139643
197363.84414338166,-2.392908,10.528795,-0.8183746,10.828262549200318
197365.0,-5.8434815,8.91119,3.541504,11.229329180274227
197365.90900367155,-2.9863493,5.460616,8.85376,10.822461613637929
197367.06486028992,-3.615684,5.8482676,10.552725,12.59505496751367
197368.22071690825,0.7059079,5.7884445,9.483095,11.132541779480896
197369.37657352662,-3.1801748,9.119372,5.3242207,11.028317346506109
197370.53243014496,-0.019143265,8.679078,2.371372,8.997231049443094
197371.6882867633,-1.3496002,9.377807,-1.3448143,9.569389234981173
197372.84414338166,-2.864311,9.6003475,3.4218585,10.586787294524221
197374.0,-2.5388756,6.7360363,6.0397,9.396704232718674
197374.90900367155,-3.1155663,7.0686507,9.593168,12.316714187011494
197376.06486028992,-2.3378713,6.5206747,8.951869,11.319045867551946
197377.22071690825,-0.6939433,5.7142644,8.841795,10.550436661994008
197378.37657352662,-4.563276,8.284247,5.6951213,11.040228386718216
197379.53243014496,-4.613527,8.851367,4.922212,11.129218306842668
197380.6882867633,-7.5065527,10.583833,1.1844895,13.029538356571829
197381.84414338166,-3.804724,10.119608,2.1488314,11.022697817479438
197383.0,0.2392908,8.413465,3.720972,9.202678198110247
197383.90900367155,4.2976627,5.003571,10.287112,12.220077771256463
197385.06486028992,5.798016,4.012907,12.519695,14.368826501142324
197386.22071690825,4.613527,4.0775156,10.990627,12.597803249023274
197387.37657352662,-0.105287954,7.5950904,2.81406,8.100334401802785
197388.53243014496,-4.905462,8.805902,0.28954187,10.084210527430052
197389.6882867633,-9.772636,9.679314,-0.17707519,13.755903806075613
197390.84414338166,-8.628826,8.966227,5.3768644,13.555830315026533
197392.0,-2.8212388,7.7219143,5.7669086,10.042140390570323
197392.90900367155,0.7776951,8.372786,8.765223,12.146501113904737
197394.06486028992,2.7949166,8.265104,7.370157,11.421152180774957
197395.22071690825,1.3639576,7.217011,7.3845143,10.415213850690884
197396.37657352662,-0.885376,7.5376606,3.5726118,8.388311692806104
197397.53243014496,-4.240233,7.441944,4.187589,9.534044683467032
197398.6882867633,-7.609448,7.5663753,4.9892135,11.834102644211615
197399.84414338166,-8.657541,7.5711613,9.559668,14.955358633865076
197401.0,-2.3881223,7.099758,6.5422106,9.945361296256342
197402.90900367155,-1.9765421,8.868117,7.410836,11.72479031870751
197404.06486028992,1.4644598,8.233996,4.2043395,9.360545030343706
197405.22071690825,0.5264398,8.379964,3.644399,9.153282448145093
197406.37657352662,0.47618872,7.697985,2.6178415,8.144864816336886
197407.53243014496,-3.017457,6.2430973,8.071279,10.640810840342821
197408.6882867633,-0.93084127,4.120588,10.538367,11.353540855714053
197409.84414338166,-3.1371026,6.0038066,9.428058,11.609280083816323
197411.0,-2.7422726,8.865725,3.9746203,10.095481430695013
197411.90900367155,-3.7640445,10.710656,0.571905,11.36720098693347
197413.06486028992,-2.2971919,10.344542,-1.3759222,10.685494921417654
197414.22071690825,-2.5125535,7.580733,4.6278844,9.230262830895695
197415.37657352662,1.4764243,4.661385,7.9061685,9.296012004200927
197416.53243014496,-1.8329676,5.592226,10.480937,12.020099927026179
197417.6882867633,-2.6345918,6.951398,7.8008804,10.775747914745194
197418.84414338166,-6.405815,9.222268,5.8386955,12.656028524769104
197420.0,-1.978935,8.078458,3.776009,9.134325993748526
197420.90900367155,-1.4213874,6.9657555,6.7480006,9.801918379799913
197422.06486028992,1.9167194,5.5443683,8.0617075,9.970203654887774
197423.22071690825,-1.6726427,7.0519004,8.686256,11.312739551095458
197424.37657352662,0.9499845,7.030364,5.443866,8.942268478897972
197425.53243014496,-1.87604,8.174174,3.1131735,8.94586473768625
197426.6882867633,-1.1940612,8.035385,2.08183,8.386132028323335
197427.84414338166,-6.2430973,9.13373,4.0799084,11.791816660827028
197429.0,-2.3043704,6.850896,5.649656,9.174067356497234
197429.90900367155,-3.2926416,7.4778376,5.568297,9.887642558174992
197431.06486028992,-0.94280577,8.013849,4.4412374,9.210605200414632
197432.22071690825,-5.7118716,9.578811,6.0732007,12.698931612190375
197433.37657352662,-0.9858781,6.0229497,7.365371,9.565383875434936
197434.53243014496,-0.15793194,5.568297,7.3581924,9.22896903089933
197435.6882867633,4.3622713,5.8626246,4.6542063,8.663799073056145
197436.84414338166,1.2467052,9.073908,-0.16032484,9.160555894840229
197438.0,-1.7396442,9.231839,1.9310769,9.590738827547556
197439.90900367155,-7.343835,7.8487387,8.066493,13.438858619955479
197441.06486028992,-2.9289196,4.8312817,10.875768,12.25569999950403
197442.22071690825,-1.4620669,6.0851655,8.808294,10.805226604421671
197443.37657352662,1.3711363,7.985134,4.225876,9.137855750585567
197444.53243014496,-2.2971919,10.294291,0.9164838,10.587231005969835
197445.6882867633,-1.8975761,9.473523,2.3330853,9.939402401749128
197446.84414338166,-4.941355,8.667113,3.7640445,10.663201582487984
197448.0,-4.3048415,6.7599654,8.021028,11.338680819482635
197448.90900367155,-5.5635114,6.8915753,9.6410265,13.091824211591076
197450.06486028992,-2.1990826,6.7551794,9.511809,11.871938487891862
197451.22071690825,-1.0385221,7.585519,8.238783,11.247051701341041
197452.37657352662,2.7422726,7.104544,6.420172,9.960582963372714
197453.53243014496,2.0363648,8.265104,1.5123179,8.645567139300661
197454.6882867633,2.2924058,8.5043955,1.4189945,8.921514028645818
197455.84414338166,-0.7896597,8.188532,2.6345918,8.638095432990731
197457.0,-1.1270597,5.4534373,7.341442,9.21450012706926
197457.90900367155,-4.3359494,5.9822702,9.076301,11.703300978261193
197459.06486028992,-3.330928,7.080615,8.004277,11.193687525214289
197460.22071690825,-5.970306,10.332577,3.4003224,12.40842027086876
197461.37657352662,-4.8456388,10.555118,2.5675905,11.894673276289673
197462.53243014496,-6.769537,11.0289135,3.0030997,13.284659272747318
197463.6882867633,-3.4816813,8.260319,8.334499,12.24005098998904
197464.84414338166,0.832732,6.168917,9.6003475,11.441837774477895
197466.0,4.8719606,5.3218274,9.806137,12.174488483140149
197466.90900367155,3.5750046,7.554411,6.3148847,10.475091991063193
197468.06486028992,2.2014754,7.7219143,6.144988,10.111148891866524
197469.22071690825,-2.112938,8.090423,5.317042,9.909106263459737
197470.37657352662,-4.78103,6.8652534,7.0782223,10.958612276895686
197471.53243014496,-5.1686816,7.080615,3.3644288,9.389875367153335
197472.6882867633,-6.401029,9.009299,2.8427749,11.411485874429852
197473.84414338166,-7.8942037,11.543388,0.75855184,14.005129755543326
197475.0,-7.702771,11.342384,5.23329,14.67547887143711
197476.90900367155,-1.9741492,7.942062,7.992313,11.438998250094876
197478.06486028992,1.1246668,5.89134,12.275619,13.662488215540508
197479.22071690825,4.1493025,5.649656,10.832695,12.902813844966813
197480.37657352662,3.050958,6.9035397,7.4060507,10.574345940918075
197481.53243014496,0.22971918,9.301233,0.97152066,9.354654382432079
197482.6882867633,-2.1679747,10.069357,-0.31107804,10.304796661761907
197483.84414338166,-5.5826545,10.2344675,0.41875893,11.665578224690845
197485.0,-6.4656377,7.994706,7.185903,12.544201721094344
197485.90900367155,-3.6324344,6.2048106,10.650834,12.850467662607915
197487.06486028992,-2.1009734,6.2383113,11.866431,13.56992268883564
197488.22071690825,-2.6992004,9.15766,6.50871,11.554727402196045
197489.37657352662,-2.7350938,10.059786,4.757101,11.459059402271874
197490.53243014496,0.047858164,9.67692,0.31825677,9.68227031547417
197491.6882867633,-0.7441944,9.105016,4.1038375,10.014820212647535
197492.84414338166,1.8664683,6.7408223,4.7953877,8.480455906871605
197494.0,-1.3519931,7.365371,10.224896,12.673794756145636
197494.90900367155,-0.22254045,6.7862873,7.6453414,10.225187758304562
197496.06486028992,-4.2234826,8.379964,6.738429,11.55283633147461
197497.22071690825,-3.464931,8.509181,2.6489491,9.5618428903592
197498.37657352662,-6.484781,8.935119,3.9770133,11.734793178854874
197499.53243014496,-4.1564813,8.664721,3.1107805,10.101023815647153
197500.6882867633,-4.788209,9.755886,3.8980472,11.54551986902733
197501.84414338166,-3.0413861,10.047821,4.529775,11.433617004602665
197503.0,-4.063158,8.724543,10.368471,14.146805094071736
197503.90900367155,1.6415349,5.4582233,11.564925,12.893189236034889
197505.06486028992,1.4883888,5.2213254,10.40915,11.740014645440208
197506.22071690825,4.402951,6.745608,4.529775,9.24164846489467
197507.37657352662,1.0241647,9.01887,0.8566611,9.117170484853252
197508.53243014496,-0.3517575,9.574025,-1.2921704,9.667232922717204
197509.6882867633,-5.068179,9.260554,2.3785505,10.821358567389183
197510.84414338166,-6.070808,7.7937016,5.934412,11.524484378420171
197512.0,-7.0686507,7.3821216,9.351485,13.853223947551777
197512.90900367155,-1.9597918,7.2529044,6.420172,9.882510543605335
197514.06486028992,-2.7446656,9.1480875,5.958341,11.257109826050407
197515.22071690825,1.3328499,7.865489,4.513025,9.165686047191231
197516.37657352662,-0.7394086,7.6261983,6.3866715,9.97472798815031
197517.53243014496,0.8231604,6.1234517,6.8532887,9.227232508824558
197518.6882867633,-3.3787863,7.31512,9.466345,12.431366181337138
197519.84414338166,-2.1679747,6.5661397,8.518753,10.9719395520922
197521.0,-4.773852,8.487645,4.7762446,10.846303197078631
197522.90900367155,-4.3407354,11.191631,1.1127023,12.05540105767533
197524.06486028992,-5.211754,10.926019,1.6439278,12.216495796933335
197525.22071690825,0.99066395,6.7910733,4.4843097,8.19811716879654
197526.37657352662,0.48097453,5.0921082,9.880318,11.125717334182996
197527.53243014496,4.5393467,3.668328,10.495295,12.008893201099339
197528.6882867633,-0.650871,6.7336435,8.092815,10.54794968076537
197529.84414338166,0.15553902,7.9372764,3.3333209,8.610201929055807
197531.0,-4.398165,10.248825,-2.1440456,11.356901020204823
197531.90900367155,-5.652049,10.299076,-1.3974583,11.830871229643906
197533.06486028992,-8.200496,8.686256,5.262005,13.05327064622415
197534.22071690825,-2.1895108,5.5898333,10.119608,11.766335875656853
197535.37657352662,0.37568656,5.355328,11.026521,12.263965253635941
197536.53243014496,5.436687,5.1399665,8.5043955,11.327028029342538
197537.6882867633,1.7827165,7.8511314,3.615684,8.825616871771299
197538.84414338166,-0.27757734,8.49961,2.4479449,8.849454986902725
197540.0,-5.9798775,8.1119585,4.0775156,10.871473639252955
197540.90900367155,-3.6635423,5.7166576,7.0423284,9.782438632210969
197542.06486028992,-2.7805593,5.446259,9.061943,10.932157063047827
197543.22071690825,-0.38765112,6.384279,8.289034,10.469831727102124
197544.37657352662,-1.9813279,9.231839,2.4934103,9.765736351826497
197545.53243014496,-1.3902797,10.638869,0.46183127,10.739259721477216
197546.6882867633,-5.266791,10.081322,3.2854629,11.839189464344315
197547.84414338166,-1.7731448,5.568297,7.7960944,9.74315461519971
197549.0,-1.8808258,5.6376915,8.233996,10.15479006514334
197549.90900367155,1.4357449,5.9822702,6.812609,9.17935518163259
197551.06486028992,-3.7951522,9.181588,4.9150333,11.084326355851209
197552.22071690825,-1.7922882,8.286641,5.2883267,9.992352843083209
197553.37657352662,-1.5147108,7.729093,3.9243693,8.799653505284633
197554.53243014496,2.9241338,5.5587254,3.6826856,7.280944978596869
197555.6882867633,0.1483603,7.209832,2.656128,7.684966115684836
197556.84414338166,-0.77290934,7.37255,4.381415,8.610962765718142
197558.0,-7.441944,9.313198,4.766673,12.83897811257847
197559.90900367155,-6.8341455,8.576182,6.4967456,12.746142389107915
197561.06486028992,-6.3053126,7.9324903,6.9107184,12.26537395057368
197562.22071690825,-1.4859959,6.4680305,9.145695,11.299882273580202
197563.37657352662,2.029186,6.164131,8.396714,10.61220584070781
197564.53243014496,3.668328,6.3794928,7.2337613,10.31900485735972
197565.6882867633,1.3160994,8.044957,3.3357139,8.807975816564358
197566.84414338166,0.33022133,8.126316,3.773616,8.96583713738427
197568.0,-4.218697,8.513967,4.3838077,10.464358958172129
197568.90900367155,-5.281148,6.8963614,7.4060507,11.414898673588146
197570.06486028992,-6.8293595,8.004277,5.355328,11.806275427100337
197571.22071690825,-5.498903,8.667113,5.199789,11.506284700227916
197572.37657352662,-3.8142955,7.7721653,6.64032,10.910969403047758
197573.53243014496,0.8518753,6.3771,8.915976,10.99489535963513
197574.6882867633,3.4003224,6.5254602,5.757337,9.342952026918194
197575.84414338166,4.8049593,6.247883,3.2711053,8.533686526937439
197577.0,0.89494765,8.360821,1.0289505,8.471304399071713
197577.90900367155,-2.1249025,8.059315,2.8547394,8.810068441598148
197579.06486028992,-7.3079414,8.549861,4.4460235,12.094348084444535
197580.22071690825,-7.779344,7.753022,6.925076,12.983998644816472
197581.37657352662,-7.2529044,8.155031,6.8054304,12.861688682896368
197582.53243014496,-3.7281508,7.473052,8.932726,12.228622505144259
197583.6882867633,1.9382555,6.164131,7.2026534,9.676340287989712
197584.84414338166,2.6154485,6.743215,6.9705415,10.044897619966045
197586.0,2.2493336,7.7171288,3.4553592,8.749462026942174
197586.90900367155,-0.43790218,8.401501,3.438609,9.088509736317102
197588.06486028992,-2.785345,8.662328,2.2517266,9.373598339472231
197589.22071690825,-6.544604,8.533111,6.6857853,12.66276233421575
197590.37657352662,-8.1526375,7.9564195,8.801116,14.395476800434313
197591.53243014496,-7.16676,7.4060507,10.818337,14.94150097259775
197592.6882867633,-2.184725,6.176096,9.6410265,11.656181926366079
197593.84414338166,2.390515,5.652049,8.664721,10.617796846402129
197595.0,5.790838,6.4177794,3.9243693,9.49328033780162
197596.90900367155,5.185432,7.753022,0.45225963,9.338232912710826
197598.06486028992,0.9763065,9.844424,-0.9739136,9.940541533235661
197599.22071690825,-4.1780176,9.920997,2.3235137,11.01275299160053
197600.37657352662,-7.3845143,8.595325,3.7927594,11.949714940902057
197601.53243014496,-9.779816,8.583362,7.032757,14.791165445560704
197602.6882867633,-7.599876,8.097601,7.0901866,13.17573539478524
197603.84414338166,-4.027264,7.4084435,9.490273,12.695242102178172
197605.0,-0.31586388,6.7240715,9.291662,11.473791450520832
197605.90900367155,0.12203831,5.991842,11.34717,12.832588628603803
197607.06486028992,2.9648132,6.1928463,8.04735,10.578341298559899
197608.22071690825,1.2132044,7.705164,5.130395,9.336078943491232
197609.37657352662,0.6556568,9.5907755,-0.5551547,9.629177393304092
197610.53243014496,-3.7855806,11.447672,0.93562704,12.093602137355916
197611.6882867633,-6.5541754,10.24404,2.782952,12.475672027184313
197612.84414338166,-7.1212945,8.1526375,8.667113,13.867125921289729
197614.0,-2.8164527,6.4991384,7.310334,10.179007267177278
197615.90900367155,-2.4048727,6.877218,8.600112,11.271267299433248
197617.06486028992,-0.7106937,6.817395,6.700143,9.585086141589636
197618.22071690825,-2.3115492,7.5352674,7.8559175,11.128295209075363
197619.37657352662,-0.7394086,7.808059,5.1878247,9.403511872867767
197620.53243014496,-2.7997024,8.681471,5.3194346,10.559481839374692
197621.6882867633,-0.5551547,8.6455765,1.4237803,8.779597946429691
197622.84414338166,-3.646792,9.832459,1.6319634,10.61318267141787
197624.0,-5.1399665,10.6269045,3.2112827,12.233670399866174
197624.90900367155,-6.7145,8.525931,9.7917795,14.616940700549526
197626.06486028992,-0.3254355,4.737958,12.866667,13.71514760997173
197627.22071690825,0.9691278,4.323985,12.498159,13.260468821359177
197628.37657352662,2.3019776,6.3603497,7.4371586,10.05308297084759
197629.53243014496,-0.442688,8.279462,4.168446,9.280161945230482
197630.6882867633,-0.28714898,9.487881,-0.3517575,9.498740639983927
197631.84414338166,-3.0389934,9.320377,1.2969562,9.888731146719028
197633.0,-3.1394954,8.535503,1.4046371,9.202404479934936
197633.90900367155,-5.415151,8.913583,3.8980472,11.134208289057547
197635.06486028992,-4.0607653,9.081086,4.6733494,10.990729383237515
197636.22071690825,-4.292877,7.7003784,9.739136,13.136795289065425
197637.37657352662,-0.09571633,5.5802617,10.397185,11.800421101831095
197638.53243014496,-2.711165,6.3172774,10.507259,12.556309214847202
197639.6882867633,-1.0576653,6.824574,6.405815,9.419550519134397
197640.84414338166,-3.4051082,8.356035,4.307235,9.998517696146626
197642.0,-3.802331,9.183981,1.9167194,10.123094452797442
197642.90900367155,-4.941355,8.892047,4.7834234,11.24129122965425
197644.06486028992,-1.0193789,7.6142335,5.888947,9.679637488206698
197645.22071690825,-0.9571632,7.6884136,8.6455765,11.609214361594477
197646.37657352662,1.720501,7.083008,7.9516335,10.786918064831458
197647.53243014496,-1.6271775,7.7219143,8.451752,11.563207986651229
197648.6882867633,2.1177237,6.5661397,5.1088586,8.58483432712896
197649.84414338166,-1.639142,8.35125,2.6417706,8.91117921274667
197651.0,-3.615684,9.207911,1.7683591,10.049173581858849
197651.90900367155,-8.135887,9.801352,3.5797906,13.231555428010774
197653.06486028992,-4.189982,8.6455765,4.3598785,10.550378320820467
197654.22071690825,-1.5577831,6.8604674,8.2124605,10.81375090323282
197655.37657352662,4.5919905,5.185432,8.427822,10.908861784915889
197656.53243014496,2.0507221,6.5278535,7.6955924,10.29759558517562
197657.6882867633,1.9502201,7.0279713,5.29072,9.010408267690632
197658.84414338166,-3.6587565,8.7053995,2.9767776,9.901095114216117
197660.0,-5.915269,8.576182,3.4721096,10.981659715812413
197660.90900367155,-9.054764,8.427822,5.7693014,13.649240762893077
197662.06486028992,-6.2119894,8.494823,5.8171597,12.024565567302025
197663.22071690825,-2.3115492,8.233996,5.9487696,10.4177641356445
197664.37657352662,1.8808258,7.961205,6.3124914,10.332755606180019
197665.53243014496,1.4979604,7.7769513,6.420172,10.195266813189534
197666.6882867633,2.4311945,6.661856,6.692964,9.75124603150091
197667.84414338166,-1.8042527,7.0088277,7.030364,10.089846951576648
197669.0,-0.98827106,6.3148847,4.3168063,7.712928438281228
197669.90900367155,-4.972463,8.954262,-0.7346228,10.268586412417866
197671.06486028992,-6.9968634,11.349563,-1.1797037,13.385080446116946
197672.22071690825,-10.464187,11.797037,3.1418884,16.07920253832237
197673.37657352662,-4.2545905,7.764987,8.250747,12.10253648996227
197674.53243014496,-0.9763065,5.7740874,12.323477,13.6440956114471
197675.6882867633,5.5850477,4.1253734,11.62714,13.54259384609547
197676.84414338166,1.9908996,7.1643667,7.336656,10.445973037093532
197678.0,2.0387578,8.758043,2.6728783,9.381051591560551
197679.90900367155,-3.3189635,10.5766535,-2.3594074,11.333486720889088
197681.06486028992,-4.2354474,9.7176,-0.17468229,10.601946912742319
197682.22071690825,-6.9729342,8.703007,4.4412374,12.003696590748094
197683.37657352662,-4.010514,7.054293,9.425665,12.437460872954334
197684.53243014496,-0.703515,5.963127,10.789622,12.347864587702524
197685.6882867633,4.264162,5.6113696,9.329948,11.692667618330393
197686.84414338166,1.3759222,7.150009,6.3148847,9.63813049168914
197688.0,0.7106937,7.030364,3.4170728,7.849043892616191
197688.90900367155,-5.3649,9.473523,-1.9119335,11.053745055407749
197690.06486028992,-8.676684,10.148323,0.50968945,13.361627456400148
197691.22071690825,-11.385457,10.01432,3.902833,15.657181789426154
197692.37657352662,-9.035621,9.222268,7.6644845,15.014559486385382
197693.53243014496,-1.5793194,7.0183992,9.758279,12.123373546155294
197694.6882867633,5.309863,6.202418,9.696064,12.675894099336306
197695.84414338166,5.3577213,6.4680305,9.875532,12.964055243650728
197697.0,7.2792263,4.4388447,8.63122,12.132124153903545
197698.90900367155,0.7322299,6.606819,4.9652843,8.297003441305874
197700.06486028992,-0.69633627,6.58289,2.2301903,6.985203914506118
197701.22071690825,-7.6142335,10.224896,-3.0868514,13.116924241948652
197702.37657352662,-9.810924,12.261261,-2.4264088,15.889625883217466
197703.53243014496,-10.842267,12.498159,-0.33740005,16.5490957723469
197704.6882867633,-7.291191,10.380435,6.9848986,14.481150004056582
197705.84414338166,-0.110073775,6.6163907,11.550568,13.311812921372253
197707.0,5.3218274,4.008121,13.744864,15.274428539376776
197707.90900367155,5.790838,4.115802,11.689356,13.678986605015155
197709.06486028992,4.1516957,4.874354,7.6214123,9.953985611266765
197710.22071690825,-1.8114314,8.210068,0.3254355,8.413822469376818
197711.37657352662,-5.958341,9.775029,-0.047858164,11.447939108284228
197712.53243014496,-10.26079,10.947555,0.052643977,15.004517429442354
197713.6882867633,-9.475916,10.404365,4.4125223,14.748360862830769
197714.84414338166,-4.972463,8.540289,8.0114565,12.721845767862549
197716.0,-0.4785816,6.4799953,12.435944,14.031111239207558
197716.90900367155,3.2878556,5.6137624,11.591247,13.292152938674535
197718.06486028992,4.57524,5.4797597,8.25314,10.9121449443702
197719.22071690825,0.8805902,7.5400534,3.9913707,8.57664762246917
197720.37657352662,-0.48336744,7.288798,1.0887731,7.385502503563299
197721.53243014496,-2.553233,8.34407,-2.00765,8.953946696272489
197722.6882867633,-5.228504,9.279697,1.3400285,10.7352553239612
197723.84414338166,-6.1067014,8.956655,3.4984317,11.390895273741737
197725.0,-5.448652,8.353642,7.994706,12.782271602015975
197725.90900367155,-2.7039862,7.9205256,7.2194037,11.05287550520766
197727.06486028992,-2.108152,7.415622,8.949476,11.812234131465733
197728.22071690825,-1.720501,7.4084435,6.5302463,10.024433925282612
197729.37657352662,-2.9935281,7.9635983,6.3364205,10.608031538512352
197730.53243014496,-0.035893623,6.812609,4.8791394,8.379673682410637
197731.6882867633,-0.5838696,6.97772,7.817631,10.494990927121622
197732.84414338166,0.58626246,7.255297,5.884161,9.359828465529443
197734.0,-2.5651975,8.865725,6.5230675,11.301846203129271
197735.90900367155,-2.2589052,8.781973,4.0607653,9.93556829260411
197737.06486028992,-4.761887,8.403893,6.4417086,11.610193583378873
197738.22071690825,-4.0775156,7.255297,5.6448703,10.056342711457006
197739.37657352662,-4.898283,7.6333766,5.9559484,10.850573072837172
197740.53243014496,-3.6300416,8.437394,3.306999,9.762328713732577
197741.6882867633,-3.5271466,8.466109,4.922212,10.408839306604582
197742.84414338166,-0.6125845,6.9896846,5.96552,9.209689432739706
197744.0,1.3735292,5.4797597,9.301233,10.88243006654698
197744.90900367155,2.8475606,5.5060816,8.346463,10.396585043508273
197746.06486028992,1.8832186,5.8363028,6.609212,9.016131428146876
197747.22071690825,0.12203831,8.399107,1.5338541,8.538887523948507
197748.37657352662,-1.9167194,9.073908,1.1414171,9.344113261672975
197749.53243014496,-4.474738,9.219875,2.605877,10.574496211328368
197750.6882867633,-6.2622404,8.159817,6.034914,11.925537945446198
197751.84414338166,-5.262005,8.391929,3.1969252,10.408337989105705
197753.0,-5.9750915,9.629062,3.2687125,11.794279750831437
197753.90900367155,-5.393615,10.162681,1.8712541,11.65644713378621
197755.06486028992,-4.1062303,8.848974,6.850896,11.920580696095726
197756.22071690825,0.8518753,5.723836,10.177038,11.707266655162941
197757.37657352662,1.8329676,3.6420062,14.434022,14.998832303881933
197758.53243014496,1.6870002,4.5895977,13.531896,14.38827946897965
197759.6882867633,-0.5288327,6.774323,9.085872,11.345668166013947
197760.84414338166,-4.8647823,11.342384,0.031107806,12.341667202021103
197762.0,-6.140202,11.648677,-2.524518,13.407719701107156
197762.90900367155,-3.493646,10.418722,-2.8164527,11.344061719593089
197764.06486028992,-1.0361292,7.5687685,4.6781354,8.957944582682908
197765.22071690825,2.1177237,5.0968943,10.612547,11.961991431284472
197766.37657352662,0.62454903,4.2091255,13.9961195,14.628675949104364
197767.53243014496,2.1225095,5.953555,8.375178,10.492543554701083
197768.6882867633,-0.57429796,8.114351,3.3524642,8.798382039349212
197769.84414338166,-1.4788172,9.009299,-1.4955676,9.251545342729862
197771.0,-5.659228,8.856153,2.0985804,10.717385278632898
197771.90900367155,-3.8214743,7.549625,2.424016,8.802065498190837
197773.06486028992,-4.9317837,8.758043,4.580026,11.04547173343496
197774.22071690825,-6.5804973,10.136358,5.9750915,13.481484215502517
197775.37657352662,-7.0973654,9.073908,10.114822,15.330297652207056
197776.53243014496,-1.6463208,6.925076,8.765223,11.291420815026674
197777.6882867633,-0.3254355,6.30292,9.52856,11.429180393390432
197778.84414338166,3.175389,5.826731,6.901147,9.573908259602815
197780.0,-0.11485959,7.6668777,8.423037,11.390423991034805
197781.90900367155,-0.2919348,7.348621,5.4893312,9.177157160710799
197783.06486028992,-4.0918727,8.468502,4.587205,10.464291568426136
197784.22071690825,-3.1993182,8.791544,0.4737958,9.367569872111169
197785.37657352662,-4.7762446,9.416093,-0.2919348,10.562222578185388
197786.53243014496,-4.8958898,9.736743,1.3137065,10.977236717404582
197787.6882867633,-5.259612,8.411072,8.021028,12.757215243010991
197788.84414338166,-1.9143264,5.6640134,12.586697,13.934512360715228
197790.0,-0.7154795,4.4675593,13.974584,14.688771050942034
197790.90900367155,1.9478272,5.6687994,8.839402,10.680091064972443
197792.06486028992,-0.13160995,8.207675,3.926762,9.099599435645946
197793.22071690825,0.6269419,9.863567,-2.0196145,10.08770800717759
197794.37657352662,-1.433352,9.705635,-0.78008807,9.841869035202881
197795.53243014496,0.8829831,7.829595,0.82076746,7.921860655319902
197796.6882867633,-3.9650488,8.418251,5.8386955,10.98539607966425
197797.84414338166,-6.719286,7.9492407,8.633613,13.523257946593398
197799.0,-9.399343,7.98992,11.600819,16.934151053678775
197799.90900367155,-3.2639267,6.8341455,7.9540267,10.982955110645587
197801.06486028992,-1.74443,7.6716633,5.9750915,9.879229334661645
197802.22071690825,0.885376,8.121531,3.929155,9.065396596915217
197803.37657352662,-1.9717562,8.478073,5.7358007,10.424248365023157
197804.53243014496,0.6197632,7.0351496,5.9726987,9.249354900718
197805.6882867633,-0.8734115,6.664249,8.274676,10.660456148181899
197806.84414338166,1.5912839,6.0181637,7.396479,9.667387463417295
197808.0,-3.1203523,8.667113,5.3505425,10.652875258595238
197808.90900367155,-5.099287,10.27754,2.1560102,11.67385696085373
197810.06486028992,-8.592933,10.588618,2.1823323,13.810137687946355
197811.22071690825,-5.029893,8.241176,2.6130557,10.002243025728152
197812.37657352662,-2.6513422,6.326849,7.181117,9.93111650812691
197813.53243014496,2.8308103,5.0945015,7.50416,9.501570911890745
197814.6882867633,0.5288327,6.9107184,8.001884,10.586209915647046
197815.84414338166,2.6992004,6.9346476,5.8937325,9.49268681233623
197817.0,-1.5649619,8.437394,5.2452545,10.057406128294604
197818.90900367155,-1.3400285,7.8008804,4.2354474,8.977105662410528
197820.06486028992,-5.9798775,9.262947,4.5704546,11.935249360213485
197821.22071690825,-4.3790216,8.92794,4.376629,10.864567373830747
197822.37657352662,-4.836067,8.719757,3.7640445,10.657848618061632
197823.53243014496,-4.1253734,9.722385,4.1564813,11.349881610611726
197824.6882867633,-5.1447525,9.308413,5.7956233,12.112154238628575
197825.84414338166,-0.4115802,6.606819,7.2265825,9.800150518696093
197827.0,-0.7202653,6.1832747,8.222033,10.31278307592733
197827.90900367155,2.1703677,5.565904,7.683628,9.732827057582154
197829.06486028992,-1.9071478,8.143066,4.03205,9.284619745250788
197830.22071690825,-4.448416,10.074143,2.495803,11.291846381717827
197831.37657352662,-7.2959766,9.566847,4.1540885,12.728404744310609
197832.53243014496,-3.3189635,6.65707,7.0901866,10.276324523975088
197833.6882867633,-1.9741492,5.5563326,10.081322,11.679175925268332
197834.84414338166,2.9600272,5.5443683,8.667113,10.706102401226776
197836.0,0.89734054,8.427822,4.9533195,9.816760044815792
197836.90900367155,2.3641932,8.724543,0.60301286,9.059287199062663
197838.06486028992,-2.163189,10.705871,-2.08183,11.118861302636255
197839.22071690825,-3.699436,9.5500965,0.28954187,10.24568223067119
197840.37657352662,-7.8200235,8.726935,5.62812,12.999534482787345
197841.53243014496,-6.695357,7.5017667,8.691042,13.290542503014763
197842.6882867633,-4.955713,7.492195,7.2959766,11.572525731409785
197843.84414338166,-0.6748001,7.8439527,6.2311325,10.040416394121987
197845.0,-1.4189945,8.628826,6.633141,10.975825392889012
197845.90900367155,1.2969562,6.3388133,8.267497,10.498293008007746
197847.06486028992,0.84708947,5.936805,8.198103,10.157367128189216
197848.22071690825,3.8382246,5.2476473,5.970306,8.826909085227877
197849.37657352662,0.5527618,8.346463,1.1103094,8.43811455134597
197850.53243014496,-3.512789,11.438101,0.859054,11.99615833588562
197851.6882867633,-5.783659,9.172017,4.0751224,11.583748523321445
197852.84414338166,-4.692493,6.6307483,7.142831,10.816947271183441
197854.0,-3.0940301,6.58289,4.6159196,8.614765044124544
197855.90900367155,-3.5534685,8.59054,3.9913707,10.117092266897181
197857.06486028992,-4.6398487,9.509417,3.046172,11.010738916728736
197858.22071690825,-5.963127,9.43045,6.3435993,12.834855780241144
197859.37657352662,-3.902833,7.2576904,8.942298,12.160216646464205
197860.53243014496,0.74658734,5.391222,9.688885,11.112927600446126
197861.6882867633,2.2469406,5.941591,8.954262,10.978618020308993
197862.84414338166,3.254355,7.1452236,5.472581,9.570485335738358
197864.0,0.98109233,9.554882,-0.5312256,9.619797962119796
197864.90900367155,1.0744157,10.057393,-0.2584341,10.117920301964148
197866.06486028992,-2.6728783,8.461323,4.020086,9.741630087636047
197867.22071690825,-2.1464386,4.513025,9.107409,10.388430680688781
197868.37657352662,-4.7762446,6.6020336,7.415622,11.017749760338639
197869.53243014496,-6.0038066,8.774794,5.123216,11.802120386409197
197870.6882867633,-9.1480875,11.356742,1.8736471,14.702844868172917
197871.84414338166,-6.781502,11.33042,2.3833365,13.41817720946613
197873.0,-1.9191123,9.169623,2.340264,9.656180071427638
197873.90900367155,3.7472942,6.932255,6.645106,10.308045739014483
197875.06486028992,5.484545,5.601798,10.205753,12.869256737933158
197876.22071690825,3.9411197,4.1277666,13.244746,14.422003265785222
197877.37657352662,-0.9954498,5.5515466,11.557746,12.86048531575724
197878.53243014496,-0.7202653,5.9009113,6.877218,9.090416035164495
197879.6882867633,-4.692493,8.896832,0.9858781,10.106684214881387
197880.84414338166,-5.467795,9.978427,-1.0480938,11.426473129095978
197882.0,-4.9581056,10.356506,-5.21654,12.611594555819947
197882.90900367155,-6.412994,11.213167,-0.3254355,12.9215910196301
197884.06486028992,-5.5563326,8.973405,4.5991693,11.512913945040598
197885.22071690825,-4.8264956,7.3462276,10.306255,13.545516300711691
197886.37657352662,-1.4668527,5.9750915,10.777658,12.4101284135916
197887.53243014496,-0.9188767,6.3914576,11.517067,13.203707696131783
197888.6882867633,-1.7228938,6.5541754,12.347405,14.084885106172099
197889.84414338166,1.8856115,5.0633936,9.588383,11.00593358294253
197891.0,1.0289505,8.068886,1.4524952,8.262893120358587
197891.90900367155,0.8805902,10.973877,-2.4599094,11.280628075052975
197893.06486028992,-0.7513731,11.048057,-4.027264,11.7831651238684
197894.22071690825,-1.1988469,8.987762,1.5123179,9.192616879264795
197895.37657352662,-3.6922572,7.5591965,7.1787243,11.059308185052743
197896.53243014496,-4.374236,5.1375737,13.460108,15.056663358071457
197897.6882867633,-3.5486827,4.955713,13.510359,14.82167468785256
197898.84414338166,-1.9669704,5.8745894,9.19116,11.08409650439171
197900.0,-3.9602628,9.478309,1.5697477,10.39163754112893
197901.90900367155,-2.916955,10.583833,-0.15314612,10.97950823935139
197903.06486028992,-2.8690968,10.995413,-0.92605543,11.401245640182115
197904.22071690825,-1.14381,8.233996,6.0875583,10.303657481691387
197905.37657352662,1.6343563,5.77648,10.686728,12.25744659591604
197906.53243014496,1.2419193,4.922212,13.97219,14.865820795259053
197907.6882867633,-1.2873845,7.5065527,8.260319,11.23559354331041
197908.84414338166,-4.345521,9.035621,3.6922572,10.684510416862059
197910.0,-5.2261114,9.822887,-1.8592896,11.280882376686991
197910.90900367155,-4.8073525,8.918368,0.87819725,10.16952094508821
197912.06486028992,-3.9961565,8.57379,4.3670573,10.41874902270304
197913.22071690825,-2.938491,7.1835103,10.825516,13.320260742701063
197914.37657352662,-0.80641,6.101916,12.041114,13.523021197948038
197915.53243014496,2.4694812,5.4319015,10.648441,12.206276542555337
197916.6882867633,3.4194658,7.860703,3.8190813,9.384496789257714
197917.84414338166,1.6295704,8.664721,0.832732,8.85586428759052
197919.0,-1.119881,9.968855,-3.2352118,10.540341496177685
197919.90900367155,-5.652049,10.5359745,1.3854938,12.036278894778473
197921.06486028992,-8.600112,9.11698,4.319199,13.256573114291076
197922.22071690825,-9.009299,8.104779,10.095679,15.7726866950841
197923.37657352662,-3.3452854,6.4225655,9.514202,11.956601595187799
197924.53243014496,0.51926106,6.197632,9.363449,11.240749602738124
197925.6882867633,2.3211207,7.461087,5.441473,9.521819623121752
197926.84414338166,1.3065279,8.281855,5.77648,10.181544999895813
197928.0,-0.09332342,8.279462,4.2019467,9.285179391902204
197928.90900367155,-3.1131735,7.8798466,6.2167754,10.508669185709433
197930.06486028992,-2.2110472,7.647734,1.9119335,8.187310594072152
197931.22071690825,-4.9820347,9.246197,1.2275618,10.574485173644735
197932.37657352662,-8.707792,12.184688,1.0576653,15.013691053815917
197933.53243014496,-8.760436,10.303863,7.7434506,15.584474929477263
197934.6882867633,-1.4237803,5.4007936,13.230389,14.36102067903915
197935.84414338166,4.941355,2.163189,14.706813,15.664824432553178
197937.0,4.7834234,4.874354,11.019341,12.964040358440133
197938.90900367155,4.6518135,6.456066,5.1327877,9.469195668503716
197940.06486028992,-0.8279462,11.423743,-3.723365,12.043705657453126
197941.22071690825,-3.6037195,11.399815,-3.0796728,12.346131411254502
197942.37657352662,-6.9609694,10.447436,-0.4115802,12.560788678377818
197943.53243014496,-7.5591965,7.8630958,7.791309,13.404261382824153
197944.6882867633,-2.8212388,5.733408,11.502709,13.15840681844768
197945.84414338166,0.4091873,4.6900997,13.548646,14.343300801270864
197947.0,3.7472942,5.831517,8.4541445,10.932582657795132
197947.90900367155,0.6652284,7.3222985,5.565904,9.221598098186929
197949.06486028992,-1.3854938,8.64797,-0.47618872,8.771187712493314
197950.22071690825,-6.09713,9.356271,1.902362,11.328450134126246
197951.37657352662,-7.9277043,8.825045,3.3883579,12.337377516261546
197952.53243014496,-9.224661,8.839402,8.793938,15.51008522962943
197953.6882867633,-3.4697168,8.107173,7.5017667,11.577637597772705
197954.84414338166,-1.0768087,8.348856,9.0069065,12.328312057409722
197956.0,4.0153,6.781502,6.7336435,10.365971167772765
197956.90900367155,2.81406,6.590069,7.9803486,10.725386094956347
197958.06486028992,3.1442811,5.7190504,6.3914576,9.134810964992933
197959.22071690825,-2.0866158,6.2813835,6.7480006,9.452261965713934
197960.37657352662,-1.6558924,7.580733,0.34457877,7.767124756716702
197961.53243014496,-4.50106,10.181824,-1.2610626,11.20354229570696
197962.6882867633,-6.3938503,11.940612,-1.6247846,13.641827648440339
197963.84414338166,-8.095208,10.294291,6.2095966,14.493581672267092
197965.0,-1.196454,5.9296265,10.256004,11.907039541869098
197965.90900367155,-0.3828653,4.785816,13.574967,14.398970438017054
197967.06486028992,2.495803,5.6879425,7.44673,9.697190840187442
197968.22071690825,-1.7611804,9.138516,4.682921,10.418444230106582
197969.37657352662,-1.0792016,8.944691,0.6819788,9.03533443003484
197970.53243014496,-4.687707,8.289034,5.989449,11.24971914736568
197971.6882867633,-1.117488,5.9679127,7.525696,9.669584360735538
197972.84414338166,-2.8260245,7.4563017,7.7960944,11.151768353482533
197974.0,-3.0844586,10.445044,3.7137933,11.506741054363518
197975.90900367155,-5.3649,10.251218,5.4079723,12.771679094429647
197977.06486028992,-0.7106937,6.5182815,6.463245,9.206878688159573
197978.22071690825,-1.3304569,4.7547083,9.375414,10.596025398810749
197979.37657352662,1.9597918,5.388829,5.025107,7.62443192979236
197980.53243014496,-1.7803236,9.217482,1.2682413,9.473117888850885
197981.6882867633,-4.9820347,12.187081,-0.7226582,13.18589579537895
197982.84414338166,-7.461087,10.258397,5.5874405,13.86080876327995
197984.0,-1.1150951,6.2335258,6.8963614,9.362696275150636
197984.90900367155,-1.4118158,5.83391,10.196181,11.831730081690955
197986.06486028992,2.5986981,5.814767,7.9875274,10.215935642171175
197987.22071690825,-0.95955616,8.2124605,8.38475,11.775792459565269
197988.37657352662,1.5553902,7.8487387,3.7257578,8.826279456225855
197989.53243014496,-3.0653152,8.963834,3.8430104,10.22326788211163
197990.6882867633,-1.2467052,7.896597,1.4740313,8.129162706545843
197991.84414338166,-5.1016803,8.85376,1.2897775,10.29950163942481
197993.0,-7.31512,10.595797,2.0770442,13.042086002183954
197993.90900367155,-6.6355343,9.172017,6.2598476,12.936069854093677
197995.06486028992,-2.5604117,6.6786065,9.846817,12.170427185880868
197996.22071690825,-1.0959519,5.5443683,14.089443,15.180696112609839
197997.37657352662,2.5149465,4.606348,13.460108,14.447072546596775
197998.53243014496,0.07896597,6.300527,9.239018,11.183127009315017
197999.6882867633,0.90691215,8.844189,0.4091873,8.89997769446755
198000.84414338166,-1.5410328,10.780051,-5.673585,12.2790003015515
198002.0,-6.0277357,12.572339,-4.2737336,14.58293881505866
198002.90900367155,-7.305548,9.267733,3.5630403,12.32709060236912
198004.06486028992,-3.5199678,5.77648,10.870981,12.803754230919846
198005.22071690825,-2.3474429,4.42688,16.747963,17.481476463746688
198006.37657352662,1.8832186,4.8552103,13.673077,14.631220523269445
198007.53243014496,0.5264398,7.7171288,5.441473,9.4573169656379
198008.6882867633,-0.014357449,11.040878,-2.7446656,11.376923239744968
198009.84414338166,-3.048565,10.725014,-0.86623275,11.183471421548568
198011.0,0.48815325,6.661856,1.7013576,6.892984596189036
198011.90900367155,-2.000471,7.049507,5.0274997,8.886685906365212
198013.06486028992,-4.189982,9.394557,5.0968943,11.480068897526074
198014.22071690825,-7.231368,10.227289,4.7499228,13.395965439150133
198015.37657352662,-6.695357,9.1480875,5.1423593,12.448259695049817
198016.53243014496,-4.23784,6.489567,8.638398,11.605847134935606
198017.6882867633,-0.69155043,4.6900997,11.887967,12.798399766621696
198018.84414338166,-0.08135887,4.2569833,14.139694,14.766836915732583
198020.0,3.3452854,5.185432,9.267733,11.134204704125308
198021.90900367155,0.859054,9.090658,1.8975761,9.3262442442374
198023.06486028992,-2.60827,12.691984,-1.952613,13.103519671329723
198024.22071690825,-2.5867336,9.789387,-0.19143265,10.127187912378439
198025.37657352662,-0.7944455,6.551782,3.0796728,7.282951021602033
198026.53243014496,-2.2756555,6.152167,7.362978,9.861095871101409
198027.6882867633,-3.5750046,6.506317,10.265575,12.668656159006574
198028.84414338166,-7.970777,8.207675,11.809001,16.44237572576892
198030.0,-3.2591407,6.99447,7.0399356,10.445348339593268
198030.90900367155,-2.711165,8.346463,2.3306925,9.07997730157682
198032.06486028992,0.6819788,9.662563,-0.27279153,9.690440342495185
198033.22071690825,-0.75376606,9.420879,3.9100118,10.2278696062273
198034.37657352662,3.0007067,6.6857853,7.604662,10.561006103178096
198035.53243014496,0.8231604,7.398872,7.7625937,10.755406122866392
198036.6882867633,-0.9571632,7.6716633,6.4441013,10.064642107132414
198037.84414338166,-6.324456,8.303391,6.4608517,12.275489826650906
198039.0,-2.732701,6.200025,4.91264,8.369109661464952
198039.90900367155,-1.1916683,5.6831565,5.953555,8.316439038359034
198041.06486028992,2.3450499,5.4582233,6.2239537,8.604014196053875
198042.22071690825,-1.9191123,7.0949726,6.353171,9.715163918843729
198043.37657352662,-1.6798215,7.8989897,3.4218585,8.770687210623269
198044.53243014496,-5.9942346,9.9927845,0.5695121,11.666659099130472
198045.6882867633,-6.0181637,9.645813,3.022243,11.76409603420576
198046.84414338166,-5.936805,7.8487387,7.9205256,12.632619624177641
198048.0,-2.1823323,5.5826545,11.036092,12.558818900137764
198048.90900367155,-1.9741492,6.743215,10.727407,12.823629538618723
198050.06486028992,0.067001425,7.37255,7.032757,10.189143914701619
198051.22071690825,-2.1009734,9.315591,2.3737648,9.840177042742045
198052.37657352662,-1.2682413,9.497452,-0.33740005,9.587693637213784
198053.53243014496,-0.80162424,8.324927,0.78248096,8.399957585026671
198054.6882867633,1.1127023,6.269419,6.6259627,9.189510471607155
198055.84414338166,-1.1366314,6.226347,10.959519,12.655843891864183
198057.0,0.54797596,5.5060816,10.117215,11.531489565308616
198058.90900367155,-4.2019467,9.119372,6.0181637,11.706305824811796
198060.06486028992,-4.874354,9.016478,2.502982,10.550882490774125
198061.22071690825,-8.0617075,9.909033,-1.8210031,12.903337362901695
198062.37657352662,-4.3670573,10.387614,-1.588891,11.379731485600187
198063.53243014496,-3.5008245,9.710421,4.321592,11.190362174277706
198064.6882867633,1.9573988,5.4630094,12.34262,13.638773780334132
198065.84414338166,2.7039862,4.551311,15.915232,16.77261407182361
198067.0,5.0968943,3.7042217,13.524716,14.920373078069442
198067.90900367155,-1.0480938,6.7838945,8.480466,10.91045502157837
198069.06486028992,0.12682413,7.291191,2.108152,7.5909060996389135
198070.22071690825,-4.094266,9.56924,-2.0411506,10.606585879925564
198071.37657352662,-3.0270288,8.935119,-2.5675905,9.777104677555657
198072.53243014496,-5.7884445,9.356271,-1.5314612,11.108162321560064
198073.6882867633,-6.420172,10.253612,1.7994668,12.230831873606565
198074.84414338166,-7.7267003,9.15766,5.42233,13.151665173297262
198076.0,-2.3043704,5.5802617,10.110037,11.775495391797836
198076.90900367155,-1.0576653,5.4199367,11.591247,12.839446122549056
198078.06486028992,2.706379,3.8669395,11.864038,12.768441802105112
198079.22071690825,-0.9547703,7.305548,6.3794928,9.745796339515715
198080.37657352662,-3.2352118,9.509417,3.512789,10.641207338891073
198081.53243014496,-7.6931996,10.835088,3.1203523,13.649946905731886
198082.6882867633,-3.9770133,8.497216,5.2476473,10.74974961216447
198083.84414338166,-1.1414171,7.6573057,6.5972476,10.171570157804087
198085.0,4.051193,6.5541754,8.537896,11.500654242434653
198085.90900367155,3.876511,8.114351,7.049507,11.426529596836083
198087.06486028992,3.567826,7.4395514,6.0732007,10.245002398340297
198088.22071690825,-2.234976,8.346463,3.6922572,9.396346394311825
198089.37657352662,-1.9286839,6.121059,2.4335876,6.8636385011503895
198090.53243014496,-4.9652843,7.5687685,0.36372203,9.059392832940079
198091.6882867633,-5.8721967,9.26534,1.5553902,11.079190316685915
198092.84414338166,-7.7458434,11.021734,1.952613,13.612105196179192
198094.0,-4.905462,9.361056,7.6381626,13.039726023679284
198095.90900367155,-1.3376356,5.7142644,13.488823,14.710215245088147
198097.06486028992,2.785345,2.5867336,14.682884,15.166951573861175
198098.22071690825,2.0937946,5.2021823,7.887025,9.677388070137905
198099.37657352662,1.8353605,8.157424,1.4883888,8.492786097665576
198100.53243014496,-2.6010911,10.095679,-0.99784267,10.47301768238806
198101.6882867633,-4.276127,8.966227,1.9741492,10.127968888159097
198102.84414338166,-3.3548572,7.817631,1.4022441,8.621873914674099
198104.0,-5.061001,9.179195,4.9652843,11.598508531266098
198104.90900367155,-6.353171,8.518753,7.7937016,13.17853250783609
198106.06486028992,-4.730779,6.9585767,11.016949,13.862727902733463
198107.22071690825,-1.0457008,6.0540576,9.05955,10.94625734165511
198108.37657352662,2.4120514,5.752551,7.348621,9.63909049472428
198109.53243014496,1.5936768,8.04735,2.0339718,8.452022778516008
198110.6882867633,0.4737958,9.279697,1.8305746,9.47038870575394
198111.84414338166,-3.3548572,9.617098,1.9502201,10.37048693227275
198113.0,-4.4173083,7.7769513,6.7480006,11.203976804573497
198114.90900367155,-2.471874,5.9248405,8.966227,11.027561953480255
198116.06486028992,-0.21057591,5.336185,11.201202,12.409115150279707
198117.22071690825,-1.9573988,8.265104,7.5328746,11.352865450289746
198118.37657352662,-1.7875023,8.557039,4.757101,9.952290733505894
198119.53243014496,-3.2615337,9.179195,1.8903974,9.923145935346685
198120.6882867633,-0.9140909,7.525696,3.4218585,8.317498304893189
198121.84414338166,-2.2995846,7.6931996,4.5656686,9.236814341699377
198123.0,-2.0459363,7.2648687,6.850896,10.193083369359508
198123.90900367155,-3.3931437,9.11698,4.2545905,10.617640454071703
198125.06486028992,-2.2828343,8.214853,6.1306305,10.501417646222615
198126.22071690825,-1.354386,7.4515157,6.412994,9.92400824810109
198127.37657352662,-0.59583414,5.7693014,9.01887,10.722866829506533
198128.53243014496,-2.0363648,6.7097144,6.7767158,9.751457632693485
198129.6882867633,-2.4383733,7.2265825,6.015771,9.713838566905471
198130.84414338166,-2.4311945,8.040172,2.4359803,8.745803136842397
198132.0,-4.216304,9.105016,5.4319015,11.409824261853215
198132.90900367155,-3.1371026,8.571397,3.441002,9.754524797166685
198134.06486028992,-2.3043704,8.470895,5.2404685,10.223927579013528
198135.22071690825,-0.1459674,7.547232,4.536954,8.807154417960591
198136.37657352662,-1.5027462,7.4060507,8.116744,11.090057090661027
198137.53243014496,-3.1442811,8.387143,5.3242207,10.420076650417437
198138.6882867633,-5.7190504,9.267733,6.403422,12.633377448137658
198139.84414338166,-4.5202036,7.702771,5.8506603,10.676851015626754
198141.0,-3.618077,7.0901866,9.353878,12.282355671435043
198141.90900367155,1.1390243,5.7860518,7.997099,9.936265103351195
198143.06486028992,1.225169,7.0279713,8.279462,10.928994037953753
198144.22071690825,1.742037,7.860703,4.3287706,9.141312787067422
198145.37657352662,1.1270597,7.8487387,3.8477962,8.813540624798652
198146.53243014496,-1.797074,7.9803486,2.4838386,8.548970284768098
198147.6882867633,-1.8425392,6.563747,3.8358316,7.822488699071684
198148.84414338166,-4.063158,8.585754,3.4290373,10.098649488237092
198150.0,-6.109094,9.049978,5.9224477,12.421695458372634
198150.90900367155,-8.513967,10.440258,3.1993182,13.846380686970305
198152.06486028992,-7.1212945,10.366077,3.7353296,13.119492175625375
198153.22071690825,-3.8430104,9.686492,4.245019,11.252423850483643
198154.37657352662,0.5886554,6.420172,10.942769,12.700760492068738
198155.53243014496,5.123216,4.070337,12.660876,14.251763629937209
198156.6882867633,5.262005,3.6946502,12.091365,13.694533372247848
198157.84414338166,1.4501023,7.001649,4.08948,8.237094880482212
198159.0,-3.1155663,9.566847,2.2589052,10.31183628621458
198159.90900367155,-4.979642,9.05955,-1.1916683,10.406361227051889
198161.06486028992,-7.1404376,8.949476,3.0748868,11.85469943216124
198162.22071690825,-3.2447834,7.528089,2.5963054,8.598926969971643
198163.37657352662,-3.7544727,8.935119,6.539818,11.69194749698827
198164.53243014496,-2.7709875,8.872903,6.257455,11.205468417232288
198165.6882867633,-4.4412374,8.91119,10.464187,14.444137441544502
198166.84414338166,-2.8068812,6.250276,11.110272,13.053071518270075
198168.0,-0.27518442,4.8073525,10.332577,11.39949612856621
198168.90900367155,0.0598227,6.719286,5.881768,8.930149937770098
198170.06486028992,0.7226582,7.9061685,3.462538,8.661345428157423
198171.22071690825,-0.6652284,10.0430355,-1.4189945,10.164577525379846
198172.37657352662,-0.61497736,10.366077,1.8640754,10.550285617940718
198173.53243014496,-0.83033913,8.372786,4.8097453,9.691576668606467
198174.6882867633,-0.8446966,5.0921082,10.076536,11.321645464589272
198175.84414338166,-1.2275618,5.4079723,7.6261983,9.429314549918749
198177.0,-4.8767467,7.1715455,6.252669,10.691566436125818
198178.90900367155,-9.00212,10.011928,3.15146,13.82781858801973
198180.06486028992,-7.262476,9.361056,4.292877,12.601655447711662
198181.22071690825,-0.9093051,7.7386646,2.782952,8.273970473145477
198182.37657352662,1.4357449,7.554411,8.006671,11.101228286862586
198183.53243014496,4.9317837,6.618784,7.7506294,11.322678490462673
198184.6882867633,2.3618002,6.7791085,9.968855,12.284644164586831
198185.84414338166,-0.009571632,7.1212945,7.0662575,10.032194277832524
198187.0,-5.4271154,7.994706,6.9418263,11.897808956724967
198187.90900367155,-7.580733,8.748472,3.2854629,12.033185015587078
198189.06486028992,-7.9300976,8.7389,3.3955367,12.279433644780717
198190.22071690825,-6.2789907,9.98082,1.0744157,11.840475547016386
198191.37657352662,-4.998785,8.973405,6.8365383,12.338885877485733
198192.53243014496,0.7130866,5.805195,10.550332,12.063096070136742
198193.6882867633,2.4551237,4.5034533,13.072457,14.042715407798863
198194.84414338166,5.4055796,5.6807637,5.8506603,9.783741256450416
198196.0,3.2854629,8.092815,1.0241647,8.794136366024096
198197.90900367155,-0.07418015,10.076536,-1.3496002,10.166784209069753
198199.06486028992,-4.170839,9.425665,3.328535,10.831352819586805
198200.22071690825,-6.743215,8.356035,5.3074703,11.977625409188255
198201.37657352662,-8.147852,7.85831,8.336892,14.058602223893669
198202.53243014496,-5.5012956,7.678842,5.671192,11.017771391729244
198203.6882867633,-3.8190813,7.8630958,8.456537,12.162511071664287
198204.84414338166,2.0650797,6.063629,6.3651357,9.03034347610364
198206.0,1.8353605,6.140202,8.004277,10.253734883372656
198206.90900367155,2.4551237,6.8389316,4.137338,8.36158977336393
198208.06486028992,-1.7587874,8.537896,4.812138,9.957192041748455
198209.22071690825,-4.9341764,9.444808,3.4027152,11.186105919196903
