timestamp,accel_x,accel_y,accel_z,magnitude
16232.735728346457,-0.0071787243,-2.2541194,9.674527,9.933658866564118
16250.823818897637,0.009571632,-2.2301903,9.736743,9.988894064830312
16268.91190944882,-0.033500712,-2.2708697,9.719993,9.98179519986919
16287.0,-0.07418015,-2.2182257,9.705635,9.956172894441893
16304.735728346457,0.026321989,-2.1775463,9.729565,9.970297679857588
16322.823818897637,0.004785816,-2.21344,9.7176,9.966498346843528
16340.91190944882,0.023929082,-2.2206187,9.703242,9.954126045129177
16359.0,0.026321989,-2.2086542,9.703242,9.951469817712686
16376.735728346457,0.014357449,-2.215833,9.67692,9.927381462733806
16394.82381889764,0.002392908,-2.239762,9.724778,9.97937105693223
16412.91190944882,-0.009571632,-2.2517266,9.705635,9.963418843474948
16431.0,-0.009571632,-2.1919038,9.722385,9.96640878013834
16449.735728346455,-0.021536173,-2.215833,9.70085,9.950722105110588
16467.82381889764,-0.026321989,-2.1942968,9.727171,9.971634116674968
16485.91190944882,-0.03828653,-2.2469406,9.7176,9.97406425076096
16504.0,-0.026321989,-2.1775463,9.719993,9.960957015056215
16522.735728346455,-0.021536173,-2.1751535,9.7176,9.958087482810628
16540.82381889764,-0.023929082,-2.2182257,9.715207,9.965256891317697
16558.91190944882,0.004785816,-2.2277975,9.672134,9.925385671045586
16577.0,-0.009571632,-2.2565124,9.688885,9.948187391214438
16594.735728346455,0.011964541,-2.187118,9.667349,9.911673167733404
16612.82381889764,-0.028714897,-2.1727605,9.715207,9.955247851687016
16630.91190944882,0.021536173,-2.21344,9.736743,9.985186262078264
16649.0,0.028714897,-2.21344,9.710421,9.959539004198474
16666.735728346455,-0.014357449,-2.1990826,9.708028,9.953993071463762
16684.82381889764,-0.026321989,-2.2038684,9.758279,10.00408605588059
16702.91190944882,-0.026321989,-2.2110472,9.686492,9.935670577962854
16721.0,0.0,-2.2565124,9.696064,9.955174800245837
16738.735728346455,0.014357449,-2.1966896,9.722385,9.967468155119178
16756.82381889764,-0.0071787243,-2.215833,9.727171,9.976363219190276
16774.91190944882,0.023929082,-2.2182257,9.6912775,9.941929261421652
16793.0,-0.004785816,-2.2277975,9.715207,9.967364328541926
16811.735728346455,0.019143265,-2.2182257,9.724778,9.974577628652723
16829.82381889764,-0.023929082,-2.239762,9.696064,9.951420175517933
16847.91190944882,-0.028714897,-2.187118,9.70085,9.94438537134064
16866.0,-0.002392908,-2.1942968,9.6912775,9.936589140872496
16883.735728346455,0.035893623,-2.1679747,9.643419,9.884175871643176
16901.82381889764,-0.002392908,-2.266084,9.775029,10.03425803793712
16919.91190944882,-0.043072347,-2.2062612,9.715207,9.96266484242798
16938.0,-0.004785816,-2.165582,9.6912775,9.930288408941859
16955.735728346455,0.0,-2.2086542,9.662563,9.911774669762556
16973.82381889764,-0.014357449,-2.1823323,9.6912775,9.933963961378726
16991.91190944882,0.0,-2.2206187,9.719993,9.970426837946242
17010.0,-0.019143265,-2.160796,9.7415285,9.978315656187826
17028.735728346455,-0.033500712,-2.1895108,9.710421,9.95426319916558
17046.82381889764,0.019143265,-2.1895108,9.729565,9.972901237710944
17064.91190944882,-0.023929082,-2.234976,9.719993,9.97366303028082
17083.0,-0.019143265,-2.2110472,9.696064,9.944986338719561
17100.735728346455,0.014357449,-2.1775463,9.686492,9.92824462284494
17118.82381889764,0.011964541,-2.2325833,9.67692,9.931130450662717
17136.91190944882,-0.019143265,-2.2206187,9.703242,9.954115690805917
17155.0,-0.047858164,-2.2301903,9.652991,9.907384842841047
17172.735728346455,0.009571632,-2.2062612,9.736743,9.983578734442554
17190.82381889764,-0.016750356,-2.2086542,9.70085,9.949116778493645
17208.91190944882,-0.016750356,-2.215833,9.67692,9.927385211862948
17227.0,-0.067001425,-2.1942968,9.643419,9.890144470481879
17244.735728346455,-0.023929082,-2.2206187,9.652991,9.905147917009419
17262.82381889764,0.021536173,-2.2254045,9.696064,9.948193106663327
17280.91190944882,-0.05025107,-2.2277975,9.652991,9.906858337390487
17299.0,-0.055036888,-2.2612982,9.729565,9.989040679544205
17317.735728346455,0.03828653,-2.1464386,9.739136,9.972935101987048
17335.82381889764,0.021536173,-2.1990826,9.712814,9.958673801614662
17353.91190944882,-0.0598227,-2.268477,9.722385,9.98370355845912
17372.0,0.019143265,-2.268477,9.708028,9.969561776372514
17390.735728346455,0.023929082,-2.2254045,9.708028,9.959859709773507
17408.82381889764,-0.035893623,-2.21344,9.696064,9.945564945133487
17426.91190944882,0.019143265,-2.187118,9.703242,9.946695779055618
17445.0,-0.033500712,-2.1942968,9.69367,9.938978761074738
17462.735728346455,-0.052643977,-2.2206187,9.6912775,9.942574031965279
17480.82381889764,0.08375178,-2.21344,9.736743,9.985514270296857
17498.91190944882,-0.002392908,-2.1512244,9.698457,9.93417537221953
17517.0,-0.021536173,-2.1584032,9.70085,9.938091310861344
17534.735728346455,-0.07896597,-2.1966896,9.722385,9.967770608886983
17552.82381889764,-0.045465253,-2.2589052,9.73435,9.993112113566893
17570.91190944882,-0.009571632,-2.1775463,9.6912775,9.93290788675648
17589.0,0.023929082,-2.187118,9.753493,9.995733262144322
17607.735728346455,-0.026321989,-2.2493336,9.686492,9.944260744633453
17625.82381889764,-0.040679436,-2.2254045,9.719993,9.971576802350897
17643.91190944882,0.0,-2.21344,9.708028,9.957164469987628
17662.0,0.004785816,-2.2062612,9.722385,9.969572782967443
17679.735728346455,0.016750356,-2.2182257,9.69367,9.94424677386209
17697.82381889764,0.0,-2.2277975,9.703242,9.955701231534132
17715.91190944882,-0.043072347,-2.2230117,9.743921,9.994380055794055
17734.0,-0.009571632,-2.1990826,9.688885,9.935318235516512
17751.735728346455,0.014357449,-2.1703677,9.681706,9.922002477321858
17769.82381889764,-0.004785816,-2.1919038,9.684099,9.9290603087246
17787.91190944882,-0.011964541,-2.239762,9.736743,9.99103804491477
17806.0,0.011964541,-2.1751535,9.715207,9.955736183309227
17823.735728346455,-0.033500712,-2.1990826,9.688885,9.935370104960976
17841.82381889764,-0.009571632,-2.2206187,9.715207,9.965765704639951
17859.91190944882,-0.023929082,-2.2014754,9.70085,9.947540261806964
17878.0,-0.028714897,-2.2014754,9.70085,9.9475529254493
17896.735728346455,-0.016750356,-2.1942968,9.719993,9.964611529857317
17914.82381889764,-0.0071787243,-2.1990826,9.688885,9.935316218366195
17932.91190944882,0.011964541,-2.1679747,9.73435,9.972854524787845
17951.0,-0.016750356,-2.237369,9.729565,9.983513194552913
17968.735728346455,-0.035893623,-2.2206187,9.705635,9.956494690210342
17986.82381889764,-0.031107806,-2.239762,9.679314,9.935120584212058
18004.91190944882,-0.019143265,-2.2182257,9.667349,9.918595082396315
18023.0,0.002392908,-2.237369,9.688885,9.943858321164614
18040.735728346455,-0.002392908,-2.2254045,9.705635,9.957498765646617
18058.82381889764,-0.0071787243,-2.2804415,9.672134,9.937335713507963
18076.91190944882,-0.023929082,-2.21344,9.67692,9.926866067443711
18095.0,0.0,-2.2445478,9.712814,9.968788824379862
18112.735728346455,-0.021536173,-2.234976,9.686492,9.941011457260648
18130.82381889764,-0.031107806,-2.1919038,9.7415285,9.985128315668298
18148.91190944882,-0.031107806,-2.1823323,9.664956,9.908325612592343
18167.0,-0.06221561,-2.2014754,9.731957,9.978043484009369
18185.735728346455,-0.011964541,-2.1942968,9.679314,9.924928267112442
18203.82381889764,-0.0071787243,-2.239762,9.715207,9.970046760350503
18221.91190944882,0.0,-2.1919038,9.715207,9.959402056414001
18240.0,-0.016750356,-2.2062612,9.662563,9.911255863210302
18258.735728346455,-0.019143265,-2.2469406,9.731957,9.987997575809288
18276.82381889764,0.011964541,-2.21344,9.708028,9.95717165828858
18294.91190944882,-0.014357449,-2.2277975,9.636241,9.890421045002535
18313.0,-0.047858164,-2.21344,9.679314,9.929286306077463
18330.735728346455,0.011964541,-2.2254045,9.758279,10.00882497502592
18348.82381889764,-0.016750356,-2.215833,9.69367,9.943713316825617
18366.91190944882,-0.014357449,-2.268477,9.674527,9.936934472441678
18385.0,0.0,-2.1990826,9.715207,9.960984456090259
18403.735728346455,-0.0071787243,-2.2014754,9.688885,9.935846114655398
18421.82381889764,-0.031107806,-2.2182257,9.722385,9.97227471743331
18439.91190944882,-0.035893623,-2.2014754,9.708028,9.95457633140463
18458.0,-0.031107806,-2.2062612,9.715207,9.962620299452778
18475.735728346455,0.014357449,-2.2038684,9.70085,9.948051707915493
18493.82381889764,0.0,-2.1727605,9.688885,9.92952066988056
18511.91190944882,-0.023929082,-2.184725,9.657777,9.901830765485713
18530.0,0.009571632,-2.187118,9.7176,9.96068905859746
18547.735728346455,0.026321989,-2.2325833,9.731957,9.984793843059196
18565.82381889764,-0.08614469,-2.2828343,9.712814,9.977850928304536
18583.91190944882,-0.033500712,-2.1775463,9.763065,10.003012965130715
18602.0,-0.045465253,-2.21344,9.679314,9.929275060820219
18619.735728346455,-0.0071787243,-2.1895108,9.674527,9.919197636458717
18637.82381889764,0.028714897,-2.2230117,9.703242,9.954672816030198
18655.91190944882,0.016750356,-2.2445478,9.70085,9.957146484983083
18674.0,-0.033500712,-2.1775463,9.727171,9.967983038187274
18692.735728346455,-0.028714897,-2.2254045,9.739136,9.990196182279204
18710.82381889764,-0.0071787243,-2.2230117,9.710421,9.961631821627442
18728.91190944882,-0.011964541,-2.2301903,9.712814,9.96557312566876
18747.0,-0.0071787243,-2.163189,9.727171,9.964802750031962
18764.735728346455,-0.019143265,-2.1990826,9.70085,9.947000626757678
18782.82381889764,-0.009571632,-2.1966896,9.657777,9.904453210380485
18800.91190944882,-0.002392908,-2.2206187,9.657777,9.909783535402143
18819.0,-0.035893623,-2.2110472,9.703242,9.952031118488522
18836.735728346455,-0.055036888,-2.1823323,9.672134,9.915431379451931
18854.82381889764,-0.028714897,-2.2086542,9.724778,9.972476375994649
18872.91190944882,-0.019143265,-2.2230117,9.681706,9.93365887039452
18891.0,0.0071787243,-2.2230117,9.6912775,9.94297199706535
18908.735728346455,0.011964541,-2.1823323,9.794173,10.034368050445112
18926.82381889764,-0.016750356,-2.21344,9.684099,9.933849739644097
18944.91190944882,-0.031107806,-2.234976,9.667349,9.922384900011243
18963.0,-0.004785816,-2.21344,9.69367,9.943167383009037
18981.735728346455,0.014357449,-2.2038684,9.739136,9.985389931662978
18999.82381889764,-0.002392908,-2.2230117,9.708028,9.959296882467637
19017.91190944882,-0.004785816,-2.237369,9.7176,9.971839985990337
19036.0,-0.067001425,-2.1727605,9.686492,9.927411779883831
19054.735728346455,-0.014357449,-2.1751535,9.686492,9.92772008826639
19072.82381889764,0.0,-2.1990826,9.688885,9.93531362488612
19090.91190944882,-0.03828653,-2.1942968,9.70085,9.945998945675074
19109.0,0.002392908,-2.1942968,9.696064,9.941257529336767
19126.735728346455,0.011964541,-2.2469406,9.7176,9.97399794316049
19144.82381889764,-0.0071787243,-2.2277975,9.66017,9.91372874674251
19162.91190944882,-0.045465253,-2.2230117,9.712814,9.964065631365704
19181.0,0.0071787243,-2.1823323,9.715207,9.957302488854843
19198.735728346455,-0.047858164,-2.2062612,9.686492,9.934687018348937
19216.82381889764,-0.031107806,-2.2182257,9.708028,9.958277993735596
19234.91190944882,0.0,-2.1895108,9.69367,9.937866753595392
19253.0,0.0071787243,-2.1990826,9.633848,9.88165184080118
19271.735728346455,-0.023929082,-2.2062612,9.760673,10.006942514900334
19289.82381889764,-0.031107806,-2.187118,9.6912775,9.935054726750344
19307.91190944882,0.03828653,-2.2062612,9.7176,9.964978881111834
19326.0,-0.067001425,-2.1942968,9.753493,9.99750235501304
19343.735728346455,-0.0071787243,-2.2182257,9.708028,9.958231993632559
19361.82381889764,-0.045465253,-2.1823323,9.69367,9.936391670307367
19379.91190944882,0.0071787243,-2.0985804,9.60274,9.829379773767354
19398.0,-0.014357449,-2.2086542,9.681706,9.930447652646654
19415.735728346455,-0.026321989,-2.2254045,9.755886,10.006519358934014
19433.82381889764,-0.023929082,-2.1966896,9.708028,9.953483081238323
19451.91190944882,0.031107806,-2.1895108,9.667349,9.912243032064527
19470.0,-0.026321989,-2.2708697,9.705635,9.967792774466572
19487.735728346455,-0.014357449,-2.1799393,9.719993,9.961455988362108
19505.82381889764,0.009571632,-2.1201165,9.731957,9.960219507599238
19523.91190944882,-0.002392908,-2.2493336,9.7176,9.974530421533519
19542.0,-0.035893623,-2.2469406,9.645813,9.904127364037148
19560.735728346455,0.004785816,-2.1895108,9.681706,9.926198240907112
19578.82381889764,-0.021536173,-2.2206187,9.6410265,9.8934828645548
19596.91190944882,-0.03828653,-2.1799393,9.708028,9.949844665061256
19615.0,-0.004785816,-2.1919038,9.681706,9.926726360836449
19632.735728346455,-0.023929082,-2.1751535,9.684099,9.925403709236647
19650.82381889764,-0.021536173,-2.187118,9.619491,9.86501677909128
19668.91190944882,-0.019143265,-2.2254045,9.712814,9.964514411240074
19687.0,0.011964541,-2.21344,9.681706,9.931509998699964
19704.735728346455,-0.033500712,-2.28762,9.729565,9.99493685079248
19722.82381889764,-0.035893623,-2.234976,9.746315,9.99935308667381
19740.91190944882,0.023929082,-2.1966896,9.729565,9.974490106714153
19759.0,-0.023929082,-2.2445478,9.6912775,9.947835292638114
19777.735728346455,-0.057429794,-2.1942968,9.715207,9.960094561829125
19795.82381889764,0.0071787243,-2.2062612,9.7176,9.964907916117841
19813.91190944882,-0.031107806,-2.2182257,9.715207,9.965276714902783
19832.0,-0.009571632,-2.2182257,9.69367,9.944237272972705
19850.735728346455,0.0071787243,-2.2014754,9.698457,9.945180423287288
19868.82381889764,-0.026321989,-2.1966896,9.763065,10.007176237084968
19886.91190944882,-0.06221561,-2.2062612,9.688885,9.937099768442406
19905.0,-0.009571632,-2.1727605,9.688885,9.929525283200825
19922.735728346455,0.0071787243,-2.1799393,9.712814,9.954443363863348
19940.82381889764,-0.021536173,-2.2206187,9.703242,9.954120580347677
19958.91190944882,-0.021536173,-2.2254045,9.70085,9.952857866857526
19977.0,-0.026321989,-2.2086542,9.669742,9.918808223211423
19994.735728346455,-0.0071787243,-2.2445478,9.729565,9.985112991338275
20012.82381889764,-0.031107806,-2.237369,9.736743,9.990543127668492
20030.91190944882,-0.08375178,-2.215833,9.650599,9.90207005142577
20049.0,-0.009571632,-2.160796,9.719993,9.957278488111305
20067.735728346455,0.019143265,-2.184725,9.708028,9.950839031911022
20085.82381889764,0.045465253,-2.2445478,9.724778,9.980549537224853
20103.91190944882,0.004785816,-2.1560102,9.581204,9.82078779814302
20122.0,-0.011964541,-2.2206187,9.669742,9.921451552449119
20139.735728346455,-0.019143265,-2.1679747,9.708028,9.947174896080744
20157.82381889764,-0.028714897,-2.2325833,9.655384,9.910181276051645
20175.91190944882,-0.03828653,-2.234976,9.715207,9.969043616706893
20194.0,0.0,-2.1919038,9.712814,9.95706774442408
20211.735728346455,-0.052643977,-2.163189,9.703242,9.941582537433332
20229.82381889764,-0.035893623,-2.239762,9.698457,9.953787738829126
20247.91190944882,-0.021536173,-2.1895108,9.6912775,9.93555639770971
20266.0,-0.06460852,-2.2038684,9.708028,9.955250767015322
20283.735728346455,-0.014357449,-2.1560102,9.688885,9.925879238741063
20301.82381889764,0.014357449,-2.163189,9.696064,9.934447638301728
20319.91190944882,-0.035893623,-2.2756555,9.669742,9.933972350143536
20338.0,0.026321989,-2.2421548,9.708028,9.9636217633475
20356.735728346455,-0.016750356,-2.2277975,9.731957,9.983704188590593
20374.82381889764,0.009571632,-2.1560102,9.708028,9.944560284267334
20392.91190944882,-0.016750356,-2.2014754,9.739136,9.984865774647513
20411.0,-0.045465253,-2.2038684,9.729565,9.976148460351515
20428.735728346455,-0.011964541,-2.215833,9.712814,9.962369940567672
20446.82381889764,0.0,-2.2014754,9.722385,9.968513631682015
20464.91190944882,-0.031107806,-2.2277975,9.648206,9.90211737029189
20483.0,-0.009571632,-2.2469406,9.722385,9.978657412913448
20500.735728346455,-0.004785816,-2.215833,9.6912775,9.941368033119488
20518.82381889764,-0.03828653,-2.2086542,9.69367,9.942175682538359
20536.91190944882,-0.035893623,-2.2254045,9.708028,9.959895641500284
20555.0,0.002392908,-2.1775463,9.643419,9.886214827941652
20573.735728346455,-0.033500712,-2.2038684,9.708028,9.955097481743064
20591.82381889764,0.004785816,-2.2277975,9.686492,9.939377841248668
20609.91190944882,-0.033500712,-2.2277975,9.688885,9.941765262866337
20628.0,-0.002392908,-2.1679747,9.672134,9.912128739065327
20646.735728346455,0.0071787243,-2.1942968,9.715207,9.959931577748003
20664.82381889764,-0.033500712,-2.1990826,9.698457,9.944704860385563
20682.91190944882,0.0071787243,-2.165582,9.767851,10.005034237373083
20701.0,-0.0598227,-2.2565124,9.82528,10.081247643282504
20718.735728346455,-0.004785816,-2.263691,9.643419,9.905546418904754
20736.82381889764,0.0,-2.160796,9.703242,9.940922726999743
20754.91190944882,-0.035893623,-2.215833,9.710421,9.96009438877474
20773.0,-0.014357449,-2.234976,9.6410265,9.896702270484854
20790.735728346455,0.031107806,-2.1966896,9.674527,9.920830891012672
20808.82381889764,-0.088537596,-2.268477,9.669742,9.932660124659378
20826.91190944882,-0.057429794,-2.2110472,9.710421,9.959131683992723
20845.0,0.031107806,-2.1464386,9.672134,9.90748921135522
20862.735728346455,-0.023929082,-2.1536174,9.667349,9.904356475528793
20880.82381889764,-0.021536173,-2.2804415,9.60274,9.869827392070732
20898.91190944882,0.0598227,-2.1560102,9.715207,9.95174385677145
20917.0,-0.05025107,-2.2206187,9.6912775,9.942561649938716
20935.735728346455,-0.009571632,-2.2421548,9.69367,9.94960239568407
20953.82381889764,-0.026321989,-2.184725,9.655384,9.899502833990498
20971.91190944882,-0.052643977,-2.2589052,9.70085,9.960517798458142
20990.0,0.019143265,-2.2014754,9.705635,9.952196298035172
21007.735728346455,0.004785816,-2.1727605,9.7415285,9.980896182743676
21025.82381889764,0.0,-2.2445478,9.739136,9.99443669513099
21043.91190944882,-0.031107806,-2.2014754,9.6912775,9.93822525476282
21062.0,0.021536173,-2.1775463,9.724778,9.965614825221532
21079.735728346455,-0.03828653,-2.234976,9.708028,9.962047541933307
21097.82381889764,-0.028714897,-2.215833,9.743921,9.992734204582835
21115.91190944882,0.002392908,-2.1751535,9.710421,9.951058962332198
21134.0,-0.023929082,-2.2038684,9.708028,9.955069872897324
21152.735728346455,-0.002392908,-2.2277975,9.696064,9.948705670543829
21170.82381889764,-0.011964541,-2.1919038,9.70085,9.945404775130864
21188.91190944882,-0.033500712,-2.215833,9.698457,9.94842230519204
21207.0,-0.011964541,-2.21344,9.674527,9.924511698696834
21224.735728346455,0.011964541,-2.2469406,9.652991,9.911060511178947
21242.82381889764,-0.014357449,-2.1942968,9.708028,9.95293686464533
21260.91190944882,0.026321989,-2.2182257,9.739136,9.988592900390996
21279.0,-0.033500712,-2.1799393,9.794173,10.033896670950822
21296.735728346455,-0.035893623,-2.1919038,9.684099,9.929124032986369
21314.82381889764,0.0,-2.234976,9.684099,9.938656406294415
21332.91190944882,0.07418015,-2.187118,9.696064,9.939951958267908
21351.0,-0.014357449,-2.2014754,9.684099,9.931186913705126
21368.735728346455,-0.040679436,-2.2110472,9.69367,9.942717063561705
21386.82381889764,0.019143265,-2.239762,9.6912775,9.9467461947737
21404.91190944882,-0.045465253,-2.2469406,9.7176,9.974094390427569
21423.0,-0.071787246,-2.2086542,9.722385,9.970359916878172
21441.735728346455,0.023929082,-2.1584032,9.743921,9.98014395832929
21459.82381889764,0.009571632,-2.2062612,9.681706,9.929909927547207
21477.91190944882,-0.033500712,-2.2421548,9.681706,9.937998365631962
21496.0,-0.052643977,-2.1895108,9.674527,9.91933473602741
21514.735728346455,-0.0071787243,-2.2014754,9.657777,9.905513719773282
21532.82381889764,-0.011964541,-2.2421548,9.708028,9.963594178116066
21550.91190944882,-0.047858164,-2.234976,9.722385,9.976080303037984
21569.0,0.009571632,-2.1584032,9.712814,9.949751343049
21586.735728346455,0.009571632,-2.2325833,9.710421,9.963774174720092
21604.82381889764,-0.03828653,-2.2110472,9.686492,9.935709478697094
21622.91190944882,-0.045465253,-2.1895108,9.727171,9.970650946442163
21641.0,-0.08375178,-2.2014754,9.686492,9.93386307352393
21658.735728346455,0.028714897,-2.2421548,9.729565,9.984614052716196
21676.82381889764,0.0071787243,-2.2086542,9.708028,9.956104286217789
21694.91190944882,-0.035893623,-2.2038684,9.6912775,9.93877174799265
21713.0,-0.028714897,-2.2014754,9.662563,9.910219079873254
21731.735728346455,-0.016750356,-2.2206187,9.758279,10.007768833614055
21749.82381889764,0.067001425,-2.215833,9.748708,9.997585345677477
21767.91190944882,-0.026321989,-2.239762,9.755886,10.00972218938892
21786.0,0.014357449,-2.2421548,9.607526,9.865699170569759
21803.735728346455,-0.08135887,-2.263691,9.80853,10.066686494080793
21821.82381889764,0.009571632,-2.1799393,9.657777,9.900751665886416
21839.91190944882,0.019143265,-2.1895108,9.688885,9.933217834676562
21858.0,-0.043072347,-2.184725,9.631455,9.876224175752903
21875.735728346455,-0.06221561,-2.2230117,9.70085,9.952494286507507
21893.82381889764,0.011964541,-2.184725,9.672134,9.915812754879065
21911.91190944882,-0.023929082,-2.215833,9.703242,9.953059519334664
21930.0,-0.019143265,-2.2038684,9.727171,9.973728392750347
21947.735728346455,-0.03828653,-2.2110472,9.703242,9.952040036573973
21965.82381889764,-0.014357449,-2.2182257,9.719993,9.969904478606166
21983.91190944882,0.033500712,-2.1727605,9.67692,9.917902559234223
22002.0,0.009571632,-2.2206187,9.684099,9.9354422382061
22020.735728346455,-0.05025107,-2.1751535,9.672134,9.913828424607438
22038.82381889764,-0.011964541,-2.1727605,9.748708,9.987909641655035
22056.91190944882,-0.014357449,-2.1942968,9.7415285,9.985615759638675
22075.0,-0.0071787243,-2.1966896,9.698457,9.944122128859828
22092.735728346455,-0.002392908,-2.2254045,9.698457,9.95050245442299
22110.82381889764,-0.055036888,-2.21344,9.667349,9.91766012628189
22128.91190944882,-0.0071787243,-2.2110472,9.715207,9.963635295792365
22147.0,-0.009571632,-2.2062612,9.722385,9.96957622905756
22164.735728346455,-0.011964541,-2.2325833,9.686492,9.940457665909765
22182.82381889764,-0.047858164,-2.2014754,9.681706,9.928958425288254
22200.91190944882,-0.033500712,-2.2110472,9.667349,9.917030236221596
22219.0,-0.033500712,-2.2014754,9.696064,9.942900649539132
22237.735728346455,-0.019143265,-2.2277975,9.703242,9.955719636277687
22255.82381889764,0.026321989,-2.1942968,9.708028,9.952961315225693
22273.91190944882,-0.0598227,-2.1775463,9.684099,9.926079794454605
22292.0,-0.028714897,-2.21344,9.667349,9.917548984840494
22310.735728346455,-0.0071787243,-2.1751535,9.710421,9.951061264000229
22328.82381889764,0.011964541,-2.2230117,9.669742,9.921987427685151
22346.91190944882,-0.0071787243,-2.1990826,9.722385,9.967988056971693
22365.0,0.004785816,-2.2277975,9.681706,9.934713668519946
22382.735728346455,-0.019143265,-2.1919038,9.73435,9.978094941197407
22400.82381889764,0.026321989,-2.1799393,9.703242,9.94513617349473
22418.91190944882,0.016750356,-2.2469406,9.703242,9.960016463084711
22437.0,0.026321989,-2.2230117,9.69367,9.945336190111513
22454.735728346455,-0.004785816,-2.2014754,9.674527,9.92184405816625
22472.82381889764,0.016750356,-2.1799393,9.736743,9.977804376422682
22490.91190944882,-0.033500712,-2.2277975,9.688885,9.941765262866337
22509.0,-0.026321989,-2.184725,9.672134,9.91584047303535
22527.735728346455,-0.035893623,-2.1895108,9.770244,10.012637700177946
22545.82381889764,0.023929082,-2.2301903,9.705635,9.958597899724863
22563.91190944882,0.004785816,-2.1775463,9.708028,9.949248134480438
22582.0,-0.019143265,-2.2086542,9.729565,9.977121575334115
22599.735728346455,-0.016750356,-2.215833,9.686492,9.936715942623051
22617.82381889764,0.002392908,-2.1966896,9.705635,9.95112062423031
22635.91190944882,-0.031107806,-2.2182257,9.746315,9.995606486399893
22654.0,-0.019143265,-2.2038684,9.708028,9.955059519555743
22671.735728346455,-0.031107806,-2.1464386,9.698457,9.933188538430803
22689.82381889764,0.18664683,-2.187118,9.698457,9.943761379172471
22707.91190944882,-0.11485959,-2.3570144,9.66017,9.944224154559388
22726.0,-0.08614469,-2.1560102,9.7176,9.954272984508673
22743.735728346455,0.12443122,-2.084223,9.746315,9.967453271596746
22761.82381889764,-0.040679436,-2.3282995,9.645813,9.922920024326636
22779.91190944882,-0.071787246,-2.2445478,9.679314,9.93641121058147
22798.0,-0.026321989,-2.1249025,9.686492,9.916855890234322
22816.735728346455,-0.067001425,-2.1536174,9.679314,9.916232984714043
22834.82381889764,-0.035893623,-2.237369,9.696064,9.950917821308197
22852.91190944882,0.019143265,-2.2230117,9.731957,9.982641661042468
22871.0,-0.009571632,-2.1942968,9.7415285,9.985610025378602
22888.735728346455,-0.110073775,-2.1895108,9.729565,9.973490305228374
22906.82381889764,-0.07896597,-2.1584032,9.736743,9.973419887192021
22924.91190944882,0.069394335,-2.3019776,9.638634,9.909953674492522
22943.0,0.16750357,-2.2971919,9.70085,9.970538540815555
22960.735728346455,-0.023929082,-2.2301903,9.7176,9.970259331390505
22978.82381889764,-0.18903974,-2.2182257,9.708028,9.960023540545663
22996.91190944882,-0.08375178,-2.1799393,9.681706,9.924443600664658
23015.0,0.12203831,-2.1751535,9.69367,9.935462956831447
23032.735728346455,0.028714897,-2.1895108,9.712814,9.956582641008026
23050.82381889764,-0.12443122,-2.2086542,9.696064,9.945214607829453
23068.91190944882,-0.08614469,-2.21344,9.727171,9.976201341415289
23087.0,0.009571632,-2.2325833,9.696064,9.949782756405993
23105.735728346455,0.069394335,-2.234976,9.7176,9.971543664563981
23123.82381889764,0.05025107,-2.2062612,9.703242,9.951031050259344
23141.91190944882,-0.07418015,-2.1942968,9.69367,9.939199123171054
23160.0,-0.09332342,-2.2182257,9.6410265,9.893362749367034
23178.735728346455,0.05025107,-2.2014754,9.715207,9.961639732478298
23196.82381889764,0.09810923,-2.21344,9.696064,9.945984071307734
23214.91190944882,-0.047858164,-2.2014754,9.645813,9.893962440379266
23233.0,-0.088537596,-2.239762,9.708028,9.963442194911027
23250.735728346455,-0.026321989,-2.2230117,9.765458,10.015320454943309
23268.82381889764,0.055036888,-2.21344,9.70085,9.950318407726495
23286.91190944882,0.040679436,-2.2038684,9.6912775,9.938790184073618
23305.0,-0.035893623,-2.2301903,9.698457,9.951638322770535
23322.735728346455,-0.0598227,-2.1966896,9.662563,9.909296023590802
23340.82381889764,0.004785816,-2.1919038,9.698457,9.943064585596245
23358.91190944882,0.055036888,-2.2062612,9.698457,9.946390587671246
23377.0,-0.016750356,-2.2565124,9.70085,9.959850375797817
23395.735728346455,-0.09810923,-2.2230117,9.69367,9.945785263529878
23413.82381889764,-0.035893623,-2.1823323,9.688885,9.931684407139626
23431.91190944882,0.040679436,-2.2206187,9.686492,9.937853364452856
23450.0,0.023929082,-2.2325833,9.688885,9.942811138487407
23467.735728346455,-0.016750356,-2.2110472,9.724778,9.972979366485122
23485.82381889764,0.019143265,-2.163189,9.724778,9.962482635548223
23503.91190944882,-0.026321989,-2.187118,9.703242,9.946712185621584
23522.0,-0.009571632,-2.2469406,9.708028,9.964669654577191
23539.735728346455,-0.023929082,-2.1942968,9.696064,9.941286040525723
23557.82381889764,-0.045465253,-2.2086542,9.70085,9.94920656067146
23575.91190944882,-0.004785816,-2.2062612,9.70085,9.948572867962532
23594.0,-0.035893623,-2.215833,9.681706,9.932101253334919
23611.735728346455,-0.011964541,-2.2254045,9.672134,9.924854883212026
23629.82381889764,-0.016750356,-2.215833,9.688885,9.9390486970102
23647.91190944882,-0.040679436,-2.1679747,9.703242,9.94256880423351
23666.0,-0.043072347,-2.1990826,9.703242,9.94940826477951
23684.735728346455,-0.026321989,-2.2541194,9.688885,9.94767508816941
23702.82381889764,0.002392908,-2.2062612,9.712814,9.96023845132385
23720.91190944882,0.009571632,-2.2014754,9.624276,9.872855416601638
23739.0,-0.014357449,-2.2086542,9.6912775,9.939779630028307
23756.735728346455,-0.045465253,-2.215833,9.688885,9.939138570134958
23774.82381889764,-0.016750356,-2.2469406,9.736743,9.992656647879157
23792.91190944882,-0.002392908,-2.2062612,9.724778,9.971905603139158
23811.0,0.0071787243,-2.1895108,9.669742,9.91453072131824
23828.735728346455,0.021536173,-2.2182257,9.710421,9.960585578174054
23846.82381889764,-0.014357449,-2.2325833,9.696064,9.949788511314031
23864.91190944882,-0.002392908,-2.2254045,9.748708,9.99948691603189
23883.0,0.0071787243,-2.2230117,9.67692,9.928978458976507
23901.735728346455,-0.021536173,-2.1990826,9.686492,9.933003340099823
23919.82381889764,-0.06460852,-2.2254045,9.753493,10.004360306912474
23937.91190944882,0.009571632,-2.2038684,9.703242,9.950378528037097
23956.0,-0.009571632,-2.2493336,9.7176,9.974534727004968
23974.735728346455,0.002392908,-2.215833,9.729565,9.978695140103373
23992.82381889764,-0.004785816,-2.1727605,9.655384,9.896835417538831
24010.91190944882,-0.043072347,-2.2277975,9.688885,9.941802123926394
24029.0,-0.002392908,-2.2565124,9.719993,9.978482743253679
24046.735728346455,0.021536173,-2.2014754,9.703242,9.949867489274249
24064.82381889764,-0.014357449,-2.1703677,9.681706,9.922002477321858
24082.91190944882,-0.040679436,-2.1727605,9.679314,9.920265244310231
24101.0,-0.0071787243,-2.1990826,9.698457,9.944651024372567
24118.735728346455,-0.033500712,-2.1895108,9.739136,9.982276787763258
24136.82381889764,0.009571632,-2.2469406,9.705635,9.962338301287128
24154.91190944882,-0.040679436,-2.2206187,9.69367,9.94484993834512
24173.0,-0.0071787243,-2.184725,9.684099,9.92747945359287
24191.735728346455,-0.0071787243,-2.215833,9.69367,9.943701799977289
24209.82381889764,-0.004785816,-2.2589052,9.67692,9.937074835836844
24227.91190944882,-0.040679436,-2.163189,9.69367,9.93218402644324
24246.0,-0.028714897,-2.1966896,9.688885,9.934825730091237
24263.735728346455,-0.016750356,-2.1990826,9.703242,9.94932913148484
24281.82381889764,0.021536173,-2.2301903,9.674527,9.928277053683109
24299.91190944882,-0.055036888,-2.2254045,9.715207,9.966980550824305
24318.0,-0.043072347,-2.184725,9.69367,9.93690679344438
24335.735728346455,0.009571632,-2.2086542,9.7176,9.965440017947866
24353.82381889764,0.002392908,-2.2493336,9.731957,9.988518129329629
24371.91190944882,0.004785816,-2.2014754,9.681706,9.928844238443665
24390.0,0.002392908,-2.1775463,9.70085,9.942243425764246
24407.735728346455,-0.026321989,-2.165582,9.719993,9.95834836536049
24425.82381889764,-0.033500712,-2.165582,9.667349,9.906992701331193
24443.91190944882,-0.033500712,-2.2206187,9.679314,9.930830238156839
24462.0,0.004785816,-2.1990826,9.698457,9.944649584902754
24480.735728346455,0.011964541,-2.2062612,9.729565,9.976580913423785
24498.82381889764,-0.031107806,-2.2110472,9.722385,9.970680393255366
24516.91190944882,-0.035893623,-2.2110472,9.686492,9.935700545953662
24535.0,-0.019143265,-2.2301903,9.67692,9.930604006061714
24552.735728346455,0.0071787243,-2.2086542,9.719993,9.967771507679599
24570.82381889764,-0.002392908,-2.1895108,9.712814,9.956541521428077
24588.91190944882,-0.009571632,-2.2230117,9.727171,9.977962131503459
24607.0,-0.0071787243,-2.215833,9.710421,9.960032299908097
24624.735728346455,-0.031107806,-2.2062612,9.684099,9.932287230040247
24642.82381889764,0.016750356,-2.1679747,9.715207,9.954177109491031
24660.91190944882,-0.0071787243,-2.1990826,9.703242,9.949317621137107
24679.0,-0.05025107,-2.1966896,9.703242,9.94891329137752
24696.735728346455,-0.011964541,-2.2230117,9.686492,9.938312303134884
24714.82381889764,0.03828653,-2.2038684,9.7415285,9.987786506489325
24732.91190944882,-0.067001425,-2.237369,9.70085,9.955742059515858
24751.0,0.016750356,-2.2086542,9.662563,9.91178882334429
24769.735728346455,0.004785816,-2.2062612,9.710421,9.957905772997716
24787.82381889764,-0.067001425,-2.1823323,9.629062,9.873494743930303
24805.91190944882,-0.011964541,-2.21344,9.710421,9.959504795976672
24824.0,0.021536173,-2.2014754,9.748708,9.994211595359419
24842.735728346455,-0.004785816,-2.1775463,9.7176,9.958588281110856
24860.82381889764,-0.002392908,-2.2469406,9.727171,9.983316255091694
24878.91190944882,-0.03828653,-2.1823323,9.7176,9.959708323339731
24897.0,-0.033500712,-2.2062612,9.715207,9.962628058558591
24914.735728346455,-0.052643977,-2.2421548,9.672134,9.928756500661773
24932.82381889764,-0.026321989,-2.2038684,9.696064,9.943409167067372
24950.91190944882,-0.021536173,-2.2277975,9.674527,9.927739832483661
24969.0,0.014357449,-2.1895108,9.664956,9.909870743939823
24986.735728346455,-0.031107806,-2.1942968,9.67692,9.922635074841985
25004.82381889764,0.004785816,-2.163189,9.70085,9.93910963196683
25022.91190944882,-0.021536173,-2.2062612,9.69367,9.941593954606722
25041.0,0.0,-2.2277975,9.662563,9.916057958179513
25059.735728346455,0.004785816,-2.2110472,9.712814,9.96130053874787
25077.82381889764,-0.026321989,-2.2014754,9.686492,9.933544888405853
25095.91190944882,0.019143265,-2.1799393,9.669742,9.912437246350835
25114.0,-0.019143265,-2.1727605,9.748708,9.987920820882549
25131.735728346455,-0.026321989,-2.2277975,9.669742,9.923088475604516
25149.82381889764,0.014357449,-2.2254045,9.705635,9.957508828928399
25167.91190944882,0.021536173,-2.2230117,9.710421,9.961652514634576
25186.0,0.014357449,-2.2086542,9.767851,10.014453188752766
25203.735728346455,-0.031107806,-2.1990826,9.681706,9.928361548999558
25221.82381889764,-0.0071787243,-2.2445478,9.710421,9.966459870877344
25239.91190944882,-0.011964541,-2.2062612,9.727171,9.97424620189956
25258.0,-0.0598227,-2.2230117,9.688885,9.94081748735974
25276.735728346455,-0.002392908,-2.21344,9.645813,9.896516093584534
25294.82381889764,-0.014357449,-2.2014754,9.69367,9.940520013663617
25312.91190944882,0.031107806,-2.1919038,9.719993,9.964119323055982
25331.0,-0.026321989,-2.2277975,9.684099,9.937079449713188
25348.735728346455,-0.026321989,-2.1966896,9.715207,9.96049120770166
25366.82381889764,-0.047858164,-2.1990826,9.67692,9.923761150485447
25384.91190944882,-0.016750356,-2.2277975,9.765458,10.016363223505644
25403.0,0.014357449,-2.2086542,9.731957,9.979446205144272
25420.735728346455,-0.023929082,-2.1679747,9.684099,9.923832946125527
25438.82381889764,-0.055036888,-2.1823323,9.6912775,9.934106044766699
25456.91190944882,-0.05025107,-2.1942968,9.70085,9.946052198688
25475.0,-0.002392908,-2.21344,9.70085,9.950166485145296
25492.735728346455,0.031107806,-2.1919038,9.686492,9.931441850512572
25510.82381889764,-0.009571632,-2.2038684,9.681706,9.92937856117359
25528.91190944882,-0.002392908,-2.215833,9.69367,9.943699496605761
25547.0,-0.028714897,-2.2062612,9.667349,9.915949259437351
25565.735728346455,-0.03828653,-2.2469406,9.765458,10.02069747413182
25583.82381889764,0.031107806,-2.2182257,9.688885,9.93961696922772
25601.91190944882,0.03828653,-2.2254045,9.69367,9.945910170311196
25620.0,-0.031107806,-2.2038684,9.674527,9.922422904404028
25638.735728346455,0.033500712,-2.2254045,9.731957,9.983212636029233
25656.82381889764,-0.055036888,-2.2014754,9.705635,9.952330066324713
25674.91190944882,-0.016750356,-2.21344,9.669742,9.919854210349571
25693.0,-0.009571632,-2.1799393,9.655384,9.898417406599886
25710.735728346455,-0.057429794,-2.1703677,9.684099,9.92449331584455
25728.82381889764,0.0,-2.2254045,9.751101,10.00181962948849
25746.91190944882,-0.0071787243,-2.237369,9.698457,9.953187416958075
25765.0,0.023929082,-2.2086542,9.729565,9.977131905781741
25782.735728346455,0.0,-2.2325833,9.719993,9.973098420826293
25800.82381889764,0.016750356,-2.2254045,9.6912775,9.943518760733175
25818.91190944882,-0.03828653,-2.2277975,9.6912775,9.944114195914684
25837.0,0.011964541,-2.2182257,9.712814,9.962902398647586
25855.735728346455,0.023929082,-2.2254045,9.688885,9.94120165436808
25873.82381889764,-0.031107806,-2.2014754,9.715207,9.961561558573448
25891.91190944882,-0.019143265,-2.1799393,9.655384,9.898431290044668
25910.0,0.031107806,-2.2612982,9.70085,9.960970232232269
25927.735728346455,-0.014357449,-2.2014754,9.67692,9.924186654811917
25945.82381889764,-0.031107806,-2.1990826,9.767851,10.01238458787006
25963.91190944882,-0.002392908,-2.234976,9.681706,9.936325000573436
25982.0,-0.0071787243,-2.1990826,9.655384,9.902648938701267
25999.735728346455,-0.03828653,-2.2206187,9.724778,9.97516518251468
26017.82381889764,-0.040679436,-2.184725,9.727171,9.969580422734914
26035.91190944882,0.023929082,-2.2038684,9.731957,9.97840646472837
26054.0,0.002392908,-2.2325833,9.719993,9.973098707898995
26071.735728346455,0.002392908,-2.2230117,9.708028,9.959296882467637
26089.82381889764,-0.004785816,-2.21344,9.672134,9.922172929937815
26107.91190944882,-0.026321989,-2.215833,9.681706,9.932071274483985
26126.0,0.023929082,-2.2206187,9.681706,9.933134001018564
26144.735728346455,-0.021536173,-2.1895108,9.7415285,9.984578051494031
26162.82381889764,-0.016750356,-2.2254045,9.708028,9.959845049589395
26180.91190944882,0.0071787243,-2.234976,9.715207,9.96897268064807
26199.0,0.004785816,-2.1919038,9.69367,9.938395405767936
26216.735728346455,0.002392908,-2.2038684,9.69367,9.941040172910842
26234.82381889764,0.023929082,-2.1751535,9.6912775,9.93240781137856
26252.91190944882,-0.021536173,-2.2014754,9.674527,9.921866276930043
26271.0,-0.03828653,-2.1942968,9.674527,9.920326455243227
26288.735728346455,0.021536173,-2.2517266,9.664956,9.923815343396463
26306.82381889764,-0.055036888,-2.2325833,9.715207,9.968585872797036
26324.91190944882,0.009571632,-2.1919038,9.684099,9.929063768875421
26343.0,0.011964541,-2.2038684,9.679314,9.927048835648785
26361.735728346455,-0.08375178,-2.2110472,9.672134,9.921991745372347
26379.82381889764,0.004785816,-2.215833,9.708028,9.957697848233185
26397.91190944882,-0.031107806,-2.2828343,9.681706,9.947247418622231
26416.0,-0.002392908,-2.2469406,9.688885,9.946016304489053
26433.735728346455,0.002392908,-2.215833,9.662563,9.913377090521005
26451.82381889764,-0.045465253,-2.1751535,9.743921,9.98385478119717
26469.91190944882,-0.045465253,-2.2038684,9.719993,9.966813278766585
26488.0,-0.028714897,-2.2038684,9.70085,9.948082789780566
26506.735728346455,0.009571632,-2.1942968,9.645813,9.892256491498712
26524.82381889764,-0.040679436,-2.2301903,9.652991,9.907352766345223
26542.91190944882,-0.019143265,-2.2230117,9.703242,9.954649807677603
26561.0,-0.043072347,-2.2230117,9.7176,9.968720379537835
26578.735728346455,0.021536173,-2.1823323,9.688885,9.931642896197777
26596.82381889764,0.0,-2.1775463,9.722385,9.96325639421513
26614.91190944882,-0.033500712,-2.234976,9.67692,9.93171791306421
26633.0,0.004785816,-2.2110472,9.708028,9.956633983101248
26651.735728346455,0.0,-2.21344,9.66017,9.910509626780048
26669.82381889764,-0.021536173,-2.1727605,9.712814,9.952894443110694
26687.91190944882,-0.028714897,-2.2277975,9.684099,9.937086076316184
26706.0,-0.028714897,-2.2254045,9.705635,9.957539881273634
26723.735728346455,0.011964541,-2.2110472,9.705635,9.954306787722295
26741.82381889764,0.028714897,-2.160796,9.698457,9.936293679223391
26759.91190944882,-0.014357449,-2.2517266,9.686492,9.94477782977344
26778.0,-0.031107806,-2.266084,9.67692,9.938756716866056
26795.735728346455,-0.026321989,-2.1895108,9.708028,9.951907256360741
26813.82381889764,-0.035893623,-2.1966896,9.674527,9.9208470517718
26831.91190944882,-0.019143265,-2.187118,9.727171,9.970040485061226
26850.0,-0.014357449,-2.2277975,9.686492,9.93938705873818
26867.735728346455,-0.026321989,-2.2062612,9.67692,9.925273901315286
26885.82381889764,-0.040679436,-2.2086542,9.715207,9.963184994997327
26903.91190944882,-0.002392908,-2.1990826,9.69367,9.93998028552026
26922.0,-0.002392908,-2.2110472,9.672134,9.921638552204596
26940.735728346455,-0.023929082,-2.1775463,9.681706,9.923593681728665
26958.82381889764,0.019143265,-2.187118,9.688885,9.932690680462363
26976.91190944882,0.009571632,-2.2301903,9.696064,9.949246076082812
26995.0,-0.043072347,-2.1775463,9.710421,9.951675191291201
27012.735728346455,0.009571632,-2.2062612,9.715207,9.962576331030723
27030.82381889764,-0.057429794,-2.2230117,9.698457,9.95013303330286
27048.91190944882,-0.03828653,-2.1823323,9.7176,9.959708323339731
27067.0,-0.019143265,-2.215833,9.652991,9.904065710331533
27084.735728346455,-0.033500712,-2.2062612,9.674527,9.922962433369328
27102.82381889764,0.016750356,-2.1751535,9.645813,9.888037305449316
27120.91190944882,-0.0598227,-2.1775463,9.662563,9.905069932769177
27139.0,-0.009571632,-2.2254045,9.698457,9.950506770291069
27156.735728346455,-0.045465253,-2.2182257,9.712814,9.962998953325592
27174.82381889764,-0.004785816,-2.2493336,9.70085,9.958213457775635
27192.91190944882,-0.002392908,-2.1775463,9.698457,9.93990854060043
27211.0,0.009571632,-2.215833,9.708028,9.957701298432895
27229.735728346455,-0.05025107,-2.215833,9.6912775,9.941493883513251
27247.82381889764,0.019143265,-2.184725,9.698457,9.941501796563175
27265.91190944882,0.033500712,-2.1990826,9.681706,9.928369334878878
27284.0,-0.033500712,-2.187118,9.69367,9.937396314554858
27301.735728346455,0.002392908,-2.1966896,9.669742,9.916116239300587
27319.82381889764,-0.019143265,-2.2206187,9.703242,9.954115690805917
27337.91190944882,0.009571632,-2.2254045,9.705635,9.957503078482295
27356.0,-0.028714897,-2.2038684,9.722385,9.969083737137193
27374.735728346455,-0.009571632,-2.187118,9.669742,9.914004594946844
27392.82381889764,-0.004785816,-2.2182257,9.688885,9.939569442556367
27410.91190944882,-0.023929082,-2.215833,9.686492,9.936730636930758
27429.0,0.002392908,-2.2254045,9.679314,9.93184526788577
27446.735728346455,-0.023929082,-2.2062612,9.703242,9.95093294089327
27464.82381889764,-0.03828653,-2.2206187,9.686492,9.937843857458876
27482.91190944882,-0.011964541,-2.2301903,9.69367,9.946915602002232
27501.0,-0.009571632,-2.1799393,9.729565,9.970790442941253
27519.735728346455,-0.033500712,-2.2206187,9.710421,9.9611518262566
27537.82381889764,-0.069394335,-2.1990826,9.712814,9.95889229050846
27555.91190944882,-0.019143265,-2.184725,9.712814,9.955508303889653
27574.0,0.014357449,-2.2086542,9.698457,9.946779764947468
27591.735728346455,-0.028714897,-2.2014754,9.636241,9.884556595629158
27609.82381889764,-0.021536173,-2.2110472,9.681706,9.930993132502476
27627.91190944882,-0.002392908,-2.2014754,9.648206,9.896180004489098
27646.0,-0.014357449,-2.2325833,9.669742,9.924139492890285
27663.735728346455,-0.052643977,-2.239762,9.7415285,9.995833267980744
27681.82381889764,0.035893623,-2.2254045,9.724778,9.976222766662557
27699.91190944882,-0.057429794,-2.2206187,9.696064,9.947266090948034
27718.0,-0.026321989,-2.215833,9.708028,9.957731487632007
27736.735728346455,0.0,-2.1727605,9.70085,9.941196050418695
27754.82381889764,0.004785816,-2.2421548,9.708028,9.963588143835624
27772.91190944882,-0.004785816,-2.21344,9.636241,9.887187676367622
27791.0,-0.019143265,-2.2565124,9.669742,9.929558148402808
27808.735728346455,-0.03828653,-2.1823323,9.67692,9.920021210279883
27826.82381889764,0.05025107,-2.2301903,9.722385,9.975021004111982
27844.91190944882,-0.011964541,-2.2230117,9.731957,9.982630475902994
27863.0,-0.0071787243,-2.1895108,9.696064,9.940204533584568
27880.735728346455,-0.0071787243,-2.184725,9.679314,9.922811817741158
27898.82381889764,0.026321989,-2.1895108,9.69367,9.937901612479445
27916.91190944882,-0.035893623,-2.215833,9.715207,9.964760473233166
27935.0,0.0,-2.21344,9.662563,9.91284219397086
27952.735728346455,-0.021536173,-2.1919038,9.712814,9.957091034724847
27970.82381889764,-0.002392908,-2.21344,9.681706,9.931503080100448
27988.91190944882,-0.03828653,-2.2277975,9.703242,9.955774850304204
28007.0,0.002392908,-2.21344,9.684099,9.933835905701768
28025.735728346455,-0.023929082,-2.2182257,9.67692,9.927934253584976
28043.82381889764,-0.0071787243,-2.1751535,9.643419,9.885690380150788
28061.91190944882,0.0,-2.21344,9.7176,9.96649719779221
28080.0,0.035893623,-2.2254045,9.715207,9.966893226760348
28097.735728346455,-0.021536173,-2.2110472,9.70085,9.949657494098746
28115.82381889764,-0.035893623,-2.2206187,9.686492,9.937834926633958
28133.91190944882,-0.002392908,-2.237369,9.722385,9.976502185455315
28152.0,-0.023929082,-2.2206187,9.69367,9.944795527342682
28170.735728346455,0.0,-2.1823323,9.672134,9.915278633582583
28188.82381889764,-0.016750356,-2.1823323,9.672134,9.915292782162583
28206.91190944882,0.004785816,-2.2254045,9.655384,9.908526039735225
28225.0,-0.021536173,-2.1823323,9.6912775,9.933976930533763
28242.735728346455,0.011964541,-2.1919038,9.696064,9.940736517521817
28260.82381889764,-0.021536173,-2.2086542,9.70085,9.949125986961123
28278.91190944882,-0.035893623,-2.2421548,9.73435,9.989300096695217
28297.0,-0.011964541,-2.1775463,9.724778,9.965598737063871
28315.735728346455,0.002392908,-2.21344,9.6912775,9.940834066697569
28333.82381889764,0.033500712,-2.2277975,9.669742,9.92311011453943
28351.91190944882,0.009571632,-2.2182257,9.679314,9.930243520824433
28370.0,-0.031107806,-2.215833,9.688885,9.93908326369732
28387.735728346455,-0.002392908,-2.1823323,9.708028,9.950295857029378
28405.82381889764,-0.06460852,-2.2277975,9.664956,9.918600226029822
28423.91190944882,-0.035893623,-2.237369,9.719993,9.974235425052994
28442.0,0.026321989,-2.237369,9.67692,9.93223507452708
28459.735728346455,-0.019143265,-2.2230117,9.698457,9.949985711737517
28477.82381889764,-0.028714897,-2.234976,9.712814,9.966679390071786
28495.91190944882,-0.028714897,-2.1966896,9.679314,9.925491889808479
28514.0,-0.026321989,-2.2110472,9.69367,9.942668687864076
28531.735728346455,0.014357449,-2.2182257,9.6912775,9.941910831147528
28549.82381889764,-0.069394335,-2.2421548,9.669742,9.926529306230709
28567.91190944882,-0.03828653,-2.21344,9.669742,9.919913953182428
28586.0,-0.067001425,-2.2086542,9.69367,9.94232772719898
28604.735728346455,-0.023929082,-2.1990826,9.719993,9.965681150961892
28622.82381889764,-0.035893623,-2.2038684,9.684099,9.931772133838534
28640.91190944882,-0.0071787243,-2.2206187,9.672134,9.923778265299374
28659.0,-0.004785816,-2.2254045,9.746315,9.99715480383694
28676.735728346455,0.031107806,-2.2254045,9.681706,9.934224879408076
28694.82381889764,-0.047858164,-2.2254045,9.684099,9.936623623458962
28712.91190944882,-0.009571632,-2.2206187,9.705635,9.95643459176797
28731.0,-0.067001425,-2.1966896,9.679314,9.925676495851363
28748.735728346455,-0.031107806,-2.2325833,9.712814,9.966150294152152
28766.82381889764,-0.019143265,-2.215833,9.6912775,9.941385312444645
28784.91190944882,-0.009571632,-2.2254045,9.712814,9.964500619868282
28803.0,-0.019143265,-2.2612982,9.679314,9.939967581663137
28820.735728346455,-0.0071787243,-2.2014754,9.69367,9.940512237293797
28838.82381889764,0.002392908,-2.2301903,9.698457,9.951573879596722
28856.91190944882,-0.040679436,-2.215833,9.708028,9.95777979015334
28875.0,0.0071787243,-2.1895108,9.698457,9.942538773283623
28893.735728346455,-0.016750356,-2.2038684,9.657777,9.90605739336663
28911.82381889764,0.0071787243,-2.1679747,9.705635,9.944823607643709
28929.91190944882,-0.009571632,-2.2325833,9.712814,9.96610634130371
28948.0,0.03828653,-2.2062612,9.69367,9.94164435140912
28966.735728346455,0.004785816,-2.2421548,9.703242,9.95892496014313
28984.82381889764,-0.033500712,-2.215833,9.667349,9.918098349451597
29002.91190944882,-0.011964541,-2.2014754,9.688885,9.935850725039678
29021.0,-0.03828653,-2.2110472,9.686492,9.935709478697094
29038.735728346455,-0.045465253,-2.215833,9.667349,9.918145979008393
29056.82381889764,-0.004785816,-2.2110472,9.688885,9.937969871552623
29074.91190944882,-0.009571632,-2.2110472,9.703242,9.951970993091317
29093.0,-0.028714897,-2.1919038,9.736743,9.98045244775071
29111.735728346455,0.009571632,-2.1966896,9.698457,9.94412414422388
29129.82381889764,-0.016750356,-2.2014754,9.70085,9.94752558346704
29147.91190944882,-0.021536173,-2.2493336,9.681706,9.939587341598868
29166.0,0.011964541,-2.2086542,9.722385,9.970108656060072
29183.735728346455,-0.05025107,-2.1990826,9.753493,9.998455638382756
29201.82381889764,0.002392908,-2.1679747,9.6912775,9.9308096149234
29219.91190944882,-0.0071787243,-2.1990826,9.686492,9.932982587408945
29238.0,-0.009571632,-2.2110472,9.698457,9.947305641107846
29255.735728346455,-0.0071787243,-2.2182257,9.679314,9.93024150264328
29273.82381889764,-0.035893623,-2.2182257,9.684099,9.9349678937636
29291.91190944882,-0.002392908,-2.1966896,9.664956,9.911449208198206
29310.0,-0.014357449,-2.234976,9.672134,9.927008611403226
29327.735728346455,-0.011964541,-2.2206187,9.688885,9.940109813490798
29345.82381889764,-0.016750356,-2.1966896,9.710421,9.955802417204517
29363.91190944882,-0.016750356,-2.2038684,9.731957,9.97839183179302
29382.0,0.004785816,-2.2206187,9.681706,9.933106331116187
29400.735728346455,0.014357449,-2.1966896,9.705635,9.951130693962115
29418.82381889764,0.002392908,-2.215833,9.6912775,9.941367169152537
29436.91190944882,0.009571632,-2.21344,9.703242,9.952502879190899
29455.0,-0.009571632,-2.2062612,9.667349,9.91591230228291
29472.735728346455,0.002392908,-2.2014754,9.6912775,9.93817685719167
29490.82381889764,-0.033500712,-2.1751535,9.727171,9.96746059483095
29508.91190944882,-0.021536173,-2.184725,9.681706,9.92516590303701
29527.0,-0.043072347,-2.2206187,9.681706,9.933198563821312
29544.735728346455,-0.004785816,-2.1990826,9.724778,9.970320673626379
29562.82381889764,-0.031107806,-2.2014754,9.681706,9.9288918164534
29580.91190944882,-0.011964541,-2.1942968,9.664956,9.910926095913922
29599.0,-0.023929082,-2.2038684,9.67692,9.924736228831673
29616.735728346455,-0.019143265,-2.2230117,9.681706,9.93365887039452
29634.82381889764,0.043072347,-2.215833,9.681706,9.932129790805249
29652.91190944882,-0.047858164,-2.1895108,9.698457,9.942651363093603
29671.0,0.011964541,-2.1966896,9.70085,9.946460630369454
29689.735728346455,0.002392908,-2.1584032,9.684099,9.92171777171574
29707.82381889764,0.002392908,-2.2277975,9.674527,9.927716761710315
29725.91190944882,-0.045465253,-2.1727605,9.696064,9.936629829659884
29744.0,0.0,-2.215833,9.688885,9.939034582247615
29762.735728346455,0.002392908,-2.1990826,9.698457,9.944648721220899
29780.82381889764,-0.0071787243,-2.239762,9.727171,9.981705315925108
29798.91190944882,-0.004785816,-2.234976,9.705635,9.959643135064416
29817.0,-0.067001425,-2.2325833,9.703242,9.956998678967217
29834.735728346455,-0.014357449,-2.1919038,9.686492,9.931403509618377
29852.82381889764,0.011964541,-2.2445478,9.70085,9.957139584199178
29870.91190944882,-0.014357449,-2.1799393,9.698457,9.940443132419965
29889.0,-0.023929082,-2.2014754,9.722385,9.968542352119266
29906.735728346455,-0.045465253,-2.21344,9.710421,9.959601383593188
29924.82381889764,-0.026321989,-2.2469406,9.712814,9.96936260277603
29942.91190944882,-0.016750356,-2.2062612,9.667349,9.915921830311722
29961.0,-0.004785816,-2.184725,9.715207,9.957825730675788
29979.735728346455,-0.035893623,-2.2254045,9.715207,9.966893226760348
29997.82381889764,-0.028714897,-2.2110472,9.672134,9.921679816437011
30015.91190944882,-0.028714897,-2.1823323,9.703242,9.945667605721448
30034.0,0.014357449,-2.1966896,9.6912775,9.937127900811994
30051.735728346455,0.0071787243,-2.1679747,9.669742,9.909796979781506
30069.82381889764,-0.016750356,-2.2014754,9.719993,9.966194781925562
30087.91190944882,0.021536173,-2.2206187,9.715207,9.96578437808014
30106.0,-0.021536173,-2.2206187,9.688885,9.940125942902444
30123.735728346455,-0.023929082,-2.2086542,9.719993,9.967797645226954
30141.82381889764,-0.028714897,-2.237369,9.712814,9.967216280690748
30159.91190944882,0.028714897,-2.2038684,9.684099,9.93174878415827
30178.0,-0.014357449,-2.2182257,9.731957,9.981568936912236
30195.735728346455,-0.047858164,-2.1727605,9.724778,9.964661847925685
30213.82381889764,0.004785816,-2.1727605,9.688885,9.929521823210827
30231.91190944882,-0.035893623,-2.1942968,9.681706,9.927318765361486
30250.0,-0.002392908,-2.1727605,9.705635,9.94586570739792
30268.735728346455,-0.057429794,-2.2206187,9.636241,9.888962847645328
30286.82381889764,0.002392908,-2.1775463,9.684099,9.925899810921596
30304.91190944882,-0.002392908,-2.2230117,9.6912775,9.94296969352476
30323.0,-0.011964541,-2.2086542,9.657777,9.907116286142399
30340.735728346455,-0.031107806,-2.2062612,9.662563,9.911290526827905
30358.82381889764,-0.028714897,-2.215833,9.724778,9.974068757457147
30376.91190944882,-0.033500712,-2.187118,9.698457,9.942065963595166
30395.0,-0.021536173,-2.2086542,9.69367,9.942125288429287
30412.735728346455,-0.021536173,-2.187118,9.657777,9.902353535114795
30430.82381889764,-0.011964541,-2.2110472,9.719993,9.968306616016493
30448.91190944882,-0.028714897,-2.1775463,9.698457,9.939949728987687
30467.0,-0.031107806,-2.1703677,9.710421,9.950062293575776
30485.735728346455,-0.004785816,-2.239762,9.674527,9.930409326629379
30503.82381889764,0.023929082,-2.1990826,9.686492,9.933008816499264
30521.91190944882,-0.009571632,-2.215833,9.674527,9.925043081707864
30540.0,-0.023929082,-2.215833,9.667349,9.9180706376117
30558.735728346455,-0.07657306,-2.237369,9.705635,9.96047359460903
30576.82381889764,0.002392908,-2.1799393,9.667349,9.91008464976431
30594.91190944882,-0.026321989,-2.21344,9.67692,9.926872124043149
30613.0,-0.069394335,-2.1895108,9.698457,9.942778349027787
30630.735728346455,-0.031107806,-2.2230117,9.674527,9.926692368944451
30648.82381889764,-0.052643977,-2.1703677,9.767851,10.006207098582294
30666.91190944882,0.026321989,-2.2254045,9.679314,9.931879859639924
30685.0,0.0,-2.1990826,9.674527,9.92131225974426
30702.735728346455,-0.040679436,-2.2038684,9.703242,9.950457077521406
30720.82381889764,-0.019143265,-2.184725,9.681706,9.925160999230988
30738.91190944882,-0.033500712,-2.187118,9.710421,9.953737159523026
30757.0,-0.033500712,-2.1942968,9.686492,9.931978051237262
30775.735728346455,-0.021536173,-2.2110472,9.67692,9.926327327555512
30793.82381889764,-0.028714897,-2.2182257,9.710421,9.960603686458528
30811.91190944882,-0.03828653,-2.2086542,9.681706,9.930511079697414
30830.0,-0.004785816,-2.2421548,9.662563,9.919294570692355
30847.735728346455,-0.033500712,-2.234976,9.631455,9.887424610853198
30865.82381889764,-0.023929082,-2.2086542,9.67692,9.92580005150935
30883.91190944882,0.011964541,-2.2038684,9.686492,9.934047832622102
30902.0,-0.026321989,-2.1990826,9.703242,9.949349850080239
30919.735728346455,-0.021536173,-2.2469406,9.719993,9.976345512597529
30937.82381889764,-0.055036888,-2.1990826,9.684099,9.930798899507757
30955.91190944882,-0.026321989,-2.184725,9.703242,9.94618627833271
30974.0,-0.004785816,-2.2086542,9.672134,9.92110640972913
30991.735728346455,-0.004785816,-2.234976,9.736743,9.98996020375756
31009.82381889764,-0.0071787243,-2.2062612,9.722385,9.969574218838686
31027.91190944882,0.004785816,-2.2206187,9.662563,9.914448751382675
31046.0,0.0071787243,-2.2038684,9.67692,9.924709977878505
31064.735728346455,-0.016750356,-2.1966896,9.712814,9.958136450750727
31082.82381889764,-0.047858164,-2.21344,9.662563,9.912957720399621
31100.91190944882,-0.002392908,-2.2469406,9.703242,9.960002665486643
31119.0,0.031107806,-2.2325833,9.66017,9.914851502465028
31136.735728346455,0.002392908,-2.165582,9.686492,9.925617280088764
31154.82381889764,0.002392908,-2.1990826,9.6912775,9.937647085182574
31172.91190944882,-0.043072347,-2.2230117,9.688885,9.940730797513732
31191.0,0.019143265,-2.1942968,9.67692,9.922604778861501
31208.735728346455,0.009571632,-2.165582,9.684099,9.923286273037986
31226.82381889764,-0.019143265,-2.1775463,9.73435,9.974950840768015
31244.91190944882,0.002392908,-2.2038684,9.698457,9.945708111108845
31263.0,-0.019143265,-2.234976,9.715207,9.968988476170482
31280.735728346455,-0.009571632,-2.2277975,9.664956,9.918394416390255
31298.82381889764,-0.035893623,-2.2206187,9.698457,9.949497672938607
31316.91190944882,-0.021536173,-2.2469406,9.6912775,9.948369989535074
31335.0,-0.043072347,-2.237369,9.715207,9.969599907824088
31353.735728346455,-0.023929082,-2.2086542,9.674527,9.923467068009646
31371.82381889764,-0.004785816,-2.2589052,9.703242,9.962709516852623
31389.91190944882,-0.031107806,-2.215833,9.684099,9.934417799815153
31408.0,-0.011964541,-2.1990826,9.70085,9.946989401540757
31426.735728346455,-0.0071787243,-2.2230117,9.698457,9.949969886048322
31444.82381889764,-0.004785816,-2.2110472,9.69367,9.942634997502553
31462.91190944882,0.019143265,-2.2301903,9.636241,9.890968397932022
31481.0,-0.021536173,-2.237369,9.698457,9.953208127521371
31498.735728346455,0.0,-2.184725,9.727171,9.96949742910173
31516.82381889764,0.0071787243,-2.2254045,9.664956,9.917855171590219
31534.91190944882,0.031107806,-2.2301903,9.703242,9.956285541323743
31553.0,-0.05025107,-2.1512244,9.751101,9.98570289470864
31570.735728346455,0.004785816,-2.2301903,9.662563,9.916596967065763
31588.82381889764,-0.03828653,-2.1942968,9.686492,9.931995346904552
31606.91190944882,-0.011964541,-2.2254045,9.69367,9.945843675011265
31625.0,0.011964541,-2.2062612,9.729565,9.976580913423785
31643.735728346455,0.014357449,-2.2230117,9.698457,9.94997765502655
31661.82381889764,-0.031107806,-2.1966896,9.708028,9.953502928272354
31679.91190944882,-0.011964541,-2.165582,9.708028,9.94664245852586
31698.0,0.0,-2.1990826,9.715207,9.960984456090259
31715.735728346455,0.011964541,-2.2038684,9.6912775,9.938714134975719
31733.82381889764,0.016750356,-2.2301903,9.69367,9.946922509879133
31751.91190944882,0.016750356,-2.2014754,9.66017,9.907858443686573
31770.0,-0.05025107,-2.2110472,9.688885,9.938095764978772
31787.735728346455,-0.004785816,-2.1727605,9.643419,9.885162674632928
31805.82381889764,0.011964541,-2.215833,9.672134,9.92271309411324
31823.91190944882,-0.040679436,-2.237369,9.664956,9.920627467081419
31842.0,0.014357449,-2.2230117,9.681706,9.933650800441631
31860.735728346455,0.002392908,-2.2206187,9.688885,9.940102900877003
31878.82381889764,-0.009571632,-2.1775463,9.679314,9.921235760497723
31896.91190944882,-0.016750356,-2.1823323,9.679314,9.922296828489129
31915.0,-0.0071787243,-2.2110472,9.672134,9.92164086069771
31932.735728346455,-0.002392908,-2.2206187,9.739136,9.989090206985539
31950.82381889764,0.009571632,-2.1966896,9.684099,9.930121361629388
31968.91190944882,-0.011964541,-2.2086542,9.710421,9.958442273903081
31987.0,-0.014357449,-2.2254045,9.672134,9.924858056361211
32004.735728346455,0.002392908,-2.1966896,9.722385,9.96745810189247
32022.82381889764,-0.009571632,-2.2206187,9.6912775,9.942439268556539
32040.91190944882,-0.004785816,-2.2038684,9.715207,9.962043258358314
32059.0,-0.002392908,-2.2182257,9.703242,9.95356399952867
32076.735728346455,-0.035893623,-2.1919038,9.686492,9.931457994005235
32094.82381889764,-0.040679436,-2.184725,9.708028,9.950903767544046
32112.91190944882,-0.043072347,-2.2301903,9.688885,9.942338585288432
32131.0,0.0071787243,-2.1942968,9.67692,9.922588909502037
32149.735728346455,0.031107806,-2.2038684,9.703242,9.950422550358185
32167.82381889764,0.0,-2.2254045,9.688885,9.941172854942483
32185.91190944882,-0.040679436,-2.184725,9.67692,9.920557384972795
32204.0,-0.016750356,-2.2062612,9.686492,9.934585865707517
32222.735728346455,-0.047858164,-2.1775463,9.712814,9.954032051942626
32240.82381889764,0.009571632,-2.2086542,9.70085,9.949107282254865
32258.91190944882,-0.002392908,-2.2110472,9.629062,9.879654368776295
32277.0,-0.040679436,-2.2110472,9.722385,9.970714850268566
32294.735728346455,-0.033500712,-2.2062612,9.696064,9.943961377259363
32312.82381889764,0.004785816,-2.1990826,9.681706,9.928313968448698
32330.91190944882,-0.033500712,-2.2038684,9.703242,9.95043031897551
32349.0,-0.002392908,-2.2230117,9.710421,9.961629522401774
32366.735728346455,-0.028714897,-2.1990826,9.6912775,9.937688282942805
32384.82381889764,-0.033500712,-2.2110472,9.724778,9.973021566587349
32402.91190944882,-0.040679436,-2.1727605,9.672134,9.913259762602285
32421.0,0.002392908,-2.215833,9.703242,9.953031041871702
32439.735728346455,-0.0071787243,-2.2110472,9.67692,9.926306560907255
32457.82381889764,-0.040679436,-2.2038684,9.624276,9.873468451623665
32475.91190944882,-0.023929082,-2.1679747,9.6912775,9.930838156108058
32494.0,-0.047858164,-2.2230117,9.712814,9.96407683735901
32511.735728346455,-0.009571632,-2.2062612,9.67692,9.92524361339129
32529.82381889764,-0.011964541,-2.1990826,9.715207,9.960991641634537
32547.91190944882,-0.045465253,-2.2086542,9.631455,9.88155584315714
32566.0,-0.040679436,-2.1775463,9.698457,9.939991493256217
32583.735728346455,-0.009571632,-2.2325833,9.679314,9.933460591262948
32601.82381889764,-0.045465253,-2.2254045,9.652991,9.90629736702526
32619.91190944882,-0.009571632,-2.2182257,9.705635,9.955901145828268
32638.0,-0.014357449,-2.2062612,9.719993,9.967249296521896
32655.735728346455,0.023929082,-2.2038684,9.686492,9.934069447691007
32673.82381889764,0.040679436,-2.1919038,9.710421,9.954816577024848
32691.91190944882,0.0071787243,-2.2206187,9.715207,9.965763693652447
32710.0,0.0071787243,-2.2230117,9.657777,9.910322352686034
32728.735728346455,-0.014357449,-2.2086542,9.686492,9.935113828114071
32746.82381889764,-0.021536173,-2.1990826,9.73435,9.979679253907424
32764.91190944882,-0.03828653,-2.2206187,9.6912775,9.942508378230082
32783.0,-0.011964541,-2.21344,9.69367,9.943173429682362
32800.73572834646,-0.023929082,-2.2277975,9.681706,9.934741333945622
32818.82381889764,-0.016750356,-2.2301903,9.6912775,9.944590938326547
32836.91190944882,-0.011964541,-2.2277975,9.662563,9.916065176279178
32855.0,-0.021536173,-2.215833,9.667349,9.918065152963933
32872.73572834646,-0.002392908,-2.2110472,9.73435,9.982299603254578
32890.82381889764,-0.031107806,-2.2445478,9.724778,9.98049446026413
32908.91190944882,-0.011964541,-2.1942968,9.739136,9.98327860090199
32927.0,-0.033500712,-2.2182257,9.698457,9.94895550973538
32945.73572834646,-0.004785816,-2.2110472,9.662563,9.912309335045574
32963.82381889764,0.045465253,-2.2110472,9.712814,9.961403144560217
32981.91190944882,0.040679436,-2.2110472,9.7176,9.966049081614093
33000.0,0.023929082,-2.234976,9.688885,9.943348674604868
33018.73572834646,-0.045465253,-2.2325833,9.672134,9.926563926889568
33036.82381889764,-0.009571632,-2.215833,9.684099,9.934373706572002
33054.91190944882,0.016750356,-2.2038684,9.657777,9.90605739336663
33073.0,-0.002392908,-2.2014754,9.703242,9.949844469808452
33090.73572834646,-0.016750356,-2.21344,9.703242,9.952512372189753
33108.82381889764,-0.043072347,-2.234976,9.708028,9.962067084517956
33126.91190944882,-0.021536173,-2.1942968,9.70085,9.945948570937702
33145.0,-0.019143265,-2.2038684,9.648206,9.896730844453103
33162.73572834646,0.0,-2.2445478,9.722385,9.978114296534683
33180.82381889764,0.002392908,-2.2206187,9.7176,9.968094245982948
33198.91190944882,-0.009571632,-2.2086542,9.6912775,9.939773869325348
33217.0,-0.023929082,-2.2014754,9.69367,9.94053844651639
33235.73572834646,-0.040679436,-2.1799393,9.70085,9.94285074265413
33253.82381889764,-0.016750356,-2.1703677,9.672134,9.91266627308644
33271.91190944882,-0.043072347,-2.2325833,9.710421,9.963862675476614
33290.0,-0.035893623,-2.1942968,9.731957,9.976332685336397
33307.73572834646,-0.033500712,-2.1919038,9.722385,9.966460487775183
33325.82381889764,-0.019143265,-2.2421548,9.667349,9.923974067860058
33343.91190944882,-0.002392908,-2.2445478,9.7176,9.97345227654364
33362.0,-0.0071787243,-2.2110472,9.645813,9.895983512803536
33379.73572834646,-0.016750356,-2.2254045,9.664956,9.91786671845223
33397.82381889764,-0.023929082,-2.1990826,9.705635,9.951677629214739
33415.91190944882,-0.047858164,-2.1990826,9.698457,9.944763590268659
33434.0,-0.002392908,-2.234976,9.67692,9.931661700490242
33451.73572834646,-0.0071787243,-2.2206187,9.657777,9.909785846656892
33469.82381889764,-0.0071787243,-2.160796,9.715207,9.952604580739033
33487.91190944882,-0.019143265,-2.1990826,9.686492,9.932998440163052
33506.0,0.016750356,-2.2086542,9.67692,9.925785341019811
33524.73572834646,0.004785816,-2.2301903,9.710421,9.963234799777123
33542.82381889764,-0.0071787243,-2.1966896,9.696064,9.94178826091799
33560.91190944882,0.002392908,-2.239762,9.674527,9.930408461708998
33579.0,-0.019143265,-2.2062612,9.703242,9.95092258324746
33596.73572834646,-0.05025107,-2.234976,9.681706,9.936451779234282
33614.82381889764,-0.004785816,-2.2014754,9.710421,9.956846530808885
33632.91190944882,-0.033500712,-2.184725,9.652991,9.897190554364936
33651.0,-0.08614469,-2.2277975,9.686492,9.93974999055235
33668.73572834646,0.0,-2.2038684,9.662563,9.910709341590417
33686.82381889764,0.016750356,-2.1966896,9.657777,9.904462749432868
33704.91190944882,-0.023929082,-2.2565124,9.672134,9.931897951865752
33723.0,0.002392908,-2.2062612,9.662563,9.911241997731825
33740.73572834646,-0.047858164,-2.239762,9.669742,9.925861905500673
33758.82381889764,-0.0598227,-2.2421548,9.662563,9.919473808200078
33776.91190944882,-0.004785816,-2.1966896,9.7176,9.962791670148631
33795.0,0.033500712,-2.187118,9.674527,9.918723714135679
33813.73572834646,-0.043072347,-2.2110472,9.69367,9.942727141815967
33831.82381889764,0.011964541,-2.1775463,9.681706,9.923572043841927
33849.91190944882,-0.035893623,-2.2254045,9.69367,9.945901246729344
33868.0,-0.014357449,-2.1990826,9.652991,9.900323513100243
33886.73572834646,-0.031107806,-2.1895108,9.664956,9.909909168143106
33904.82381889764,-0.014357449,-2.1751535,9.724778,9.96507932904641
33922.91190944882,0.009571632,-2.2038684,9.708028,9.955045715085477
33941.0,-0.06460852,-2.215833,9.715207,9.964905277903778
33958.73572834646,-0.011964541,-2.21344,9.724778,9.973503242749027
33976.82381889764,-0.014357449,-2.1895108,9.698457,9.942546548068428
33994.91190944882,0.011964541,-2.1942968,9.681706,9.92726108587699
34013.0,-0.03828653,-2.215833,9.672134,9.922779744417612
34030.73572834646,0.019143265,-2.1919038,9.705635,9.950083390920614
34048.82381889764,0.004785816,-2.1799393,9.672134,9.9147533690796
34066.91190944882,-0.035893623,-2.2086542,9.686492,9.93516829215357
34085.0,-0.040679436,-2.187118,9.67692,9.921084650825096
34103.73572834646,-0.033500712,-2.1895108,9.667349,9.912250830604629
34121.82381889764,-0.002392908,-2.1990826,9.681706,9.928313103345777
34139.91190944882,-0.03828653,-2.2325833,9.703242,9.956846858337348
34158.0,-0.021536173,-2.1942968,9.664956,9.910942272820165
34175.73572834646,-0.033500712,-2.215833,9.662563,9.913433406774997
34193.82381889764,0.0,-2.2086542,9.652991,9.902443568193592
34211.91190944882,-0.011964541,-2.1560102,9.710421,9.946898970532796
34230.0,-0.021536173,-2.2254045,9.712814,9.964519295679231
34247.73572834646,0.023929082,-2.2301903,9.617098,9.872329781605934
34265.82381889764,-0.004785816,-2.239762,9.69367,9.949059995274869
34283.91190944882,-0.028714897,-2.163189,9.648206,9.887774785737523
34302.0,-0.0071787243,-2.1895108,9.674527,9.919197636458717
34320.73572834646,-0.023929082,-2.2206187,9.696064,9.94712908852856
34338.82381889764,0.0,-2.1823323,9.686492,9.929285046451596
34356.91190944882,-0.002392908,-2.2301903,9.67692,9.93058584307204
34375.0,0.016750356,-2.2086542,9.67692,9.925785341019811
34392.73572834646,-0.009571632,-2.2014754,9.710421,9.956849981303591
34410.82381889764,-0.028714897,-2.234976,9.729565,9.983004425277528
34428.91190944882,0.028714897,-2.1895108,9.698457,9.942577647143388
34447.0,-0.021536173,-2.2254045,9.67692,9.929535219826139
34464.73572834646,-0.045465253,-2.21344,9.7176,9.96660089914462
34482.82381889764,-0.002392908,-2.1942968,9.636241,9.8829188392185
34500.91190944882,-0.0071787243,-2.2014754,9.729565,9.975519062189832
34519.0,-0.011964541,-2.2277975,9.698457,9.951044821127908
34536.73572834646,-0.06221561,-2.1799393,9.662563,9.905611029249087
34554.82381889764,-0.028714897,-2.21344,9.652991,9.903553727071445
34572.91190944882,-0.055036888,-2.2421548,9.667349,9.924108216560557
34591.0,-0.009571632,-2.2038684,9.684099,9.931711885795856
34609.73572834646,0.004785816,-2.2038684,9.6410265,9.889714394372348
34627.82381889764,0.035893623,-2.239762,9.703242,9.958450054068658
34645.91190944882,-0.019143265,-2.2086542,9.708028,9.956120102156085
34664.0,-0.021536173,-2.2445478,9.664956,9.922188927609085
34682.73572834646,0.021536173,-2.2086542,9.655384,9.904799713743893
34700.82381889764,-0.011964541,-2.1799393,9.703242,9.945108536988917
34718.91190944882,-0.019143265,-2.2038684,9.657777,9.906061728600443
34737.0,-0.014357449,-2.2014754,9.710421,9.956855732126883
34754.73572834646,0.069394335,-2.2445478,9.715207,9.97136186551586
34772.82381889764,-0.023929082,-2.2038684,9.708028,9.955069872897324
34790.91190944882,-0.021536173,-2.215833,9.705635,9.955387006232428
34809.0,0.002392908,-2.215833,9.67692,9.927371368912201
34826.73572834646,-0.047858164,-2.2086542,9.664956,9.914223028607694
34844.82381889764,-0.043072347,-2.2445478,9.629062,9.887299178916603
34862.91190944882,-0.014357449,-2.165582,9.722385,9.960658694247623
34881.0,-0.023929082,-2.2325833,9.696064,9.949806926996134
34899.73572834646,-0.009571632,-2.184725,9.727171,9.969502023923019
34917.82381889764,0.016750356,-2.1727605,9.648206,9.889845690566784
34935.91190944882,-0.047858164,-2.1919038,9.648206,9.894170591350843
34954.0,-0.026321989,-2.237369,9.708028,9.96254588637111
34971.73572834646,-0.026321989,-2.2182257,9.698457,9.94893392701421
34989.82381889764,-0.03828653,-2.2254045,9.70085,9.952908206624821
35007.91190944882,-0.03828653,-2.1775463,9.684099,9.92597336228665
35026.0,0.014357449,-2.2325833,9.684099,9.938128987368884
35043.73572834646,0.016750356,-2.2230117,9.636241,9.889347915957048
35061.82381889764,-0.031107806,-2.1727605,9.679314,9.920230612064943
35079.91190944882,-0.05025107,-2.2206187,9.715207,9.965887799572842
35098.0,-0.011964541,-2.21344,9.688885,9.938508556471959
35115.73572834646,-0.021536173,-2.184725,9.6912775,9.934502841832536
35133.82381889764,-0.004785816,-2.2182257,9.708028,9.958230556125887
35151.91190944882,0.002392908,-2.2014754,9.69367,9.940509933183199
35170.0,-0.009571632,-2.1990826,9.708028,9.953987318986593
35188.73572834646,0.0071787243,-2.21344,9.705635,9.95483394743014
35206.82381889764,0.0071787243,-2.2421548,9.686492,9.942607150406255
35224.91190944882,-0.031107806,-2.2301903,9.667349,9.921308036625474
35243.0,-0.052643977,-2.21344,9.70085,9.950305459854707
35260.73572834646,-0.009571632,-2.2110472,9.672134,9.921642880628339
35278.82381889764,0.002392908,-2.1966896,9.667349,9.913782709569434
35296.91190944882,-0.028714897,-2.1799393,9.684099,9.926466306737519
35315.0,-0.026321989,-2.215833,9.669742,9.920409219258946
35332.73572834646,-0.026321989,-2.2277975,9.719993,9.972062899328312
35350.82381889764,-0.0071787243,-2.2206187,9.688885,9.94010520508195
35368.91190944882,-0.009571632,-2.2038684,9.739136,9.985384197273218
35387.0,0.002392908,-2.2206187,9.681706,9.933105466430646
35404.73572834646,-0.052643977,-2.21344,9.67692,9.926976816146716
35422.82381889764,-0.019143265,-2.1942968,9.705635,9.950610818653802
35440.91190944882,0.0071787243,-2.263691,9.619491,9.882254579631338
35459.0,-0.026321989,-2.2254045,9.686492,9.93887545458686
35477.73572834646,-0.021536173,-2.2206187,9.686492,9.937793441383311
35495.82381889764,-0.031107806,-2.1919038,9.679314,9.92444101572701
35513.91190944882,-0.019143265,-2.184725,9.6912775,9.934497942635355
35532.0,-0.021536173,-2.2325833,9.69367,9.947468525563997
35550.73572834646,-0.004785816,-2.2038684,9.719993,9.96671072865077
35568.82381889764,-0.009571632,-2.215833,9.650599,9.90172048478592
35586.91190944882,-0.055036888,-2.1895108,9.672134,9.917013800349043
35605.0,0.0071787243,-2.1895108,9.672134,9.916863677158984
35622.73572834646,-0.0071787243,-2.2062612,9.688885,9.936907595420873
35640.82381889764,0.019143265,-2.2301903,9.674527,9.928272151413756
35658.91190944882,-0.0071787243,-2.2206187,9.703242,9.954099871682835
35677.0,-0.021536173,-2.21344,9.70085,9.95018950386612
35695.73572834646,-0.0598227,-2.2086542,9.6912775,9.939949281189476
35713.82381889764,-0.019143265,-2.2421548,9.679314,9.935630031475302
35731.91190944882,-0.009571632,-2.2182257,9.650599,9.90225620407191
35750.0,-0.05025107,-2.2277975,9.724778,9.976818832690428
35767.73572834646,-0.040679436,-2.2325833,9.710421,9.963852618600557
35785.82381889764,-0.035893623,-2.1895108,9.633848,9.879588715254938
35803.91190944882,0.0071787243,-2.2086542,9.674527,9.923440813699107
35822.0,-0.019143265,-2.2014754,9.672134,9.919528038941975
35839.73572834646,0.019143265,-2.2062612,9.657777,9.906594345634089
35857.82381889764,-0.05025107,-2.1895108,9.688885,9.933326495015544
35875.91190944882,-0.002392908,-2.2325833,9.703242,9.95677353503692
35894.0,-0.035893623,-2.1895108,9.7176,9.961274800721476
35911.73572834646,-0.026321989,-2.21344,9.657777,9.908212051749492
35929.82381889764,-0.023929082,-2.2277975,9.686492,9.939405493692044
35947.91190944882,0.014357449,-2.1919038,9.739136,9.982756053880724
35966.0,0.0,-2.1990826,9.674527,9.92131225974426
35984.73572834646,-0.009571632,-2.2014754,9.70085,9.947516085709251
36002.82381889764,-0.014357449,-2.1990826,9.710421,9.956326954012988
36020.91190944882,-0.004785816,-2.2038684,9.621883,9.871053200861718
36039.0,-0.043072347,-2.2254045,9.727171,9.978583871418696
36056.73572834646,-0.026321989,-2.2206187,9.67692,9.92847525777723
36074.82381889764,-0.011964541,-2.1823323,9.643419,9.887277048177907
36092.91190944882,-0.06460852,-2.1799393,9.66017,9.903292080992113
36111.0,-0.033500712,-2.21344,9.66017,9.910566248212286
36128.73572834646,-0.03828653,-2.2062612,9.681706,9.929979124421203
36146.82381889764,0.011964541,-2.2301903,9.684099,9.937588508599882
36164.91190944882,-0.06460852,-2.215833,9.669742,9.920584684952273
36183.0,0.004785816,-2.1895108,9.69367,9.937867905957063
36200.73572834646,-0.028714897,-2.2014754,9.722385,9.96855498908141
36218.82381889764,0.004785816,-2.2206187,9.753493,10.00308932359766
36236.91190944882,0.040679436,-2.1799393,9.727171,9.968532782282393
36255.0,-0.033500712,-2.215833,9.6912775,9.94142332684811
36273.73572834646,-0.07418015,-2.2493336,9.67692,9.935179164219587
36291.82381889764,-0.031107806,-2.263691,9.650599,9.912584208866836
36309.91190944882,0.0071787243,-2.1966896,9.6912775,9.937120121787649
36328.0,-0.016750356,-2.2038684,9.681706,9.929388076280466
36346.73572834646,-0.004785816,-2.2445478,9.710421,9.966458434557415
36364.82381889764,-0.043072347,-2.2182257,9.6410265,9.893016347753543
36382.91190944882,-0.004785816,-2.1990826,9.710421,9.956317752206312
36401.0,0.014357449,-2.2206187,9.727171,9.977435001560897
36418.73572834646,-0.002392908,-2.1942968,9.657777,9.903918454542522
36436.82381889764,-0.045465253,-2.1942968,9.679314,9.925025191218237
36454.91190944882,-0.040679436,-2.215833,9.679314,9.929788024474554
36473.0,-0.011964541,-2.1775463,9.708028,9.94925417745818
36490.73572834646,-0.002392908,-2.21344,9.724778,9.973496353280163
36508.82381889764,-0.009571632,-2.187118,9.710421,9.95368538579074
36526.91190944882,-0.016750356,-2.2086542,9.662563,9.91178882334429
36545.0,-0.040679436,-2.1966896,9.710421,9.955871434108742
36563.73572834646,-0.019143265,-2.2445478,9.681706,9.938500508704303
36581.82381889764,-0.03828653,-2.215833,9.688885,9.939108324467213
36599.91190944882,-0.040679436,-2.2182257,9.669742,9.920992411004947
36618.0,-0.026321989,-2.239762,9.698457,9.953757825293817
36635.73572834646,0.019143265,-2.2469406,9.712814,9.969346233485886
36653.82381889764,0.004785816,-2.2206187,9.652991,9.905120168928061
36671.91190944882,0.0,-2.1895108,9.710421,9.95420682628996
36690.0,-0.033500712,-2.2014754,9.674527,9.921899460699985
36707.73572834646,0.0,-2.1966896,9.705635,9.951120336523578
36725.82381889764,-0.045465253,-2.1823323,9.712814,9.95506891766449
36743.91190944882,0.004785816,-2.1823323,9.643419,9.88727096732051
36762.0,0.004785816,-2.2301903,9.638634,9.89328242112823
36779.73572834646,0.023929082,-2.2182257,9.696064,9.946595143525338
36797.82381889764,0.016750356,-2.1895108,9.722385,9.965892243345186
36815.91190944882,-0.0071787243,-2.1703677,9.66017,9.900981361268482
36834.0,-0.014357449,-2.2230117,9.686492,9.938315471987325
36852.73572834646,-0.057429794,-2.2014754,9.67692,9.924342436879336
36870.82381889764,-0.0071787243,-2.2445478,9.698457,9.954803591302865
36888.91190944882,-0.002392908,-2.239762,9.703242,9.958385654975242
36907.0,-0.002392908,-2.2014754,9.681706,9.928843373386945
36924.73572834646,-0.026321989,-2.1895108,9.664956,9.909895300776773
36942.82381889764,-0.019143265,-2.1895108,9.669742,9.914546603575753
36960.91190944882,0.014357449,-2.2493336,9.684099,9.941905311469815
36979.0,0.026321989,-2.1799393,9.664956,9.907784953294325
36996.73572834646,-0.002392908,-2.2206187,9.719993,9.970427125095865
37014.82381889764,-0.021536173,-2.2062612,9.672134,9.920596171769564
37032.91190944882,0.004785816,-2.234976,9.688885,9.943321033127503
37051.0,-0.045465253,-2.215833,9.645813,9.8971557229382
37069.73572834646,-0.033500712,-2.2541194,9.669742,9.929052669500996
37087.82381889764,-0.033500712,-2.1895108,9.724778,9.968269006718527
37105.91190944882,-0.0071787243,-2.2086542,9.69367,9.942104554779144
37124.0,-0.004785816,-2.1799393,9.705635,9.947437308620962
37142.73572834646,-0.009571632,-2.2062612,9.631455,9.880921288816625
37160.82381889764,-0.055036888,-2.2206187,9.669742,9.921596989214711
37178.91190944882,-0.028714897,-2.2230117,9.688885,9.9406789560307
37197.0,-0.023929082,-2.1990826,9.684099,9.930675219963097
37214.73572834646,-0.026321989,-2.2062612,9.6912775,9.939272655065691
37232.82381889764,-0.009571632,-2.2325833,9.710421,9.963774174720092
37250.91190944882,-0.031107806,-2.237369,9.688885,9.943906691083749
37269.0,0.0,-2.2182257,9.681706,9.93257047931584
37286.73572834646,-0.021536173,-2.2086542,9.650599,9.900135263759083
37304.82381889764,-0.033500712,-2.184725,9.696064,9.939205336214032
37322.91190944882,-0.033500712,-2.2014754,9.674527,9.921899460699985
37341.0,-0.002392908,-2.2230117,9.681706,9.93364071299046
37359.73572834646,-0.047858164,-2.2254045,9.6410265,9.894650451945433
37377.82381889764,-0.0071787243,-2.1895108,9.643419,9.888859342055595
37395.91190944882,0.014357449,-2.1823323,9.667349,9.910621428132853
37414.0,-0.071787246,-2.187118,9.667349,9.9119259098529
37431.73572834646,-0.009571632,-2.237369,9.69367,9.948525002592099
37449.82381889764,0.0071787243,-2.21344,9.6410265,9.89185322077642
37467.91190944882,-0.002392908,-2.2182257,9.70085,9.95123217017115
37486.0,0.004785816,-2.2110472,9.67692,9.92630511877721
37503.73572834646,0.004785816,-2.2086542,9.674527,9.923439371152595
37521.82381889764,-0.045465253,-2.2062612,9.6912775,9.939341786751376
37539.91190944882,-0.016750356,-2.2277975,9.712814,9.96504481043755
37558.0,-0.021536173,-2.2062612,9.686492,9.93459508764383
37575.73572834646,-0.016750356,-2.1990826,9.708028,9.953996810569757
37593.82381889764,-0.043072347,-2.1679747,9.667349,9.90755298823666
37611.91190944882,0.011964541,-2.2325833,9.679314,9.93346318522781
37630.0,-0.004785816,-2.1775463,9.715207,9.956253203164707
37648.73572834646,0.0,-2.2014754,9.69367,9.940509645169364
37666.82381889764,-0.014357449,-2.2206187,9.669742,9.92145472668678
37684.91190944882,0.031107806,-2.2182257,9.6912775,9.941949131520483
37703.0,-0.035893623,-2.237369,9.684099,9.939259622131523
37720.73572834646,-0.021536173,-2.1966896,9.664956,9.911472316837274
37738.82381889764,0.014357449,-2.184725,9.719993,9.962504372998579
37756.91190944882,-0.009571632,-2.2014754,9.6410265,9.889184876755342
37775.0,-0.045465253,-2.2206187,9.70085,9.951869433554686
37792.73572834646,-0.002392908,-2.2038684,9.664956,9.913042728267808
37810.82381889764,-0.035893623,-2.2206187,9.684099,9.935502463628236
37828.91190944882,-0.011964541,-2.2325833,9.66017,9.91480992105145
37847.0,0.0071787243,-2.215833,9.679314,9.929707293196893
37865.73572834646,-0.011964541,-2.215833,9.684099,9.93437630029844
37883.82381889764,-0.011964541,-2.215833,9.652991,9.904054436452343
37901.91190944882,-0.011964541,-2.1799393,9.669742,9.912425981992996
37920.0,-0.052643977,-2.266084,9.722385,9.983119661288017
37938.73572834646,-0.047858164,-2.234976,9.669742,9.924783044026778
37956.82381889764,-0.09332342,-2.2038684,9.69367,9.94147792102055
37974.91190944882,-0.011964541,-2.1942968,9.667349,9.91325972042156
37993.0,0.021536173,-2.2469406,9.655384,9.913407388689917
38010.73572834646,-0.043072347,-2.1751535,9.669742,9.911460958012311
38028.82381889764,-0.016750356,-2.1966896,9.779816,10.023498728838662
38046.91190944882,-0.011964541,-2.2421548,9.698457,9.954268907270556
38065.0,-0.052643977,-2.268477,9.672134,9.934733786156496
38082.73572834646,0.011964541,-2.2565124,9.708028,9.966834954506828
38100.82381889764,0.011964541,-2.2014754,9.686492,9.93351721965138
38118.91190944882,-0.043072347,-2.1584032,9.681706,9.919475322378817
38137.0,-0.03828653,-2.2086542,9.6912775,9.939842997530862
38154.73572834646,-0.026321989,-2.1823323,9.698457,9.94099267153825
38172.82381889764,0.0,-2.1775463,9.633848,9.87687881750848
38190.91190944882,0.004785816,-2.1990826,9.679314,9.925981397134167
38209.0,0.002392908,-2.1751535,9.6912775,9.932379274704385
38227.73572834646,0.004785816,-2.2206187,9.650599,9.902789070439978
38245.82381889764,0.016750356,-2.2230117,9.703242,9.954645493603829
38263.91190944882,-0.016750356,-2.2301903,9.669742,9.923605176305847
38282.0,-0.035893623,-2.2086542,9.662563,9.91183966054328
38299.73572834646,-0.035893623,-2.2565124,9.696064,9.955239507697533
38317.82381889764,-0.023929082,-2.1895108,9.667349,9.912223102416682
38335.91190944882,-0.03828653,-2.2014754,9.67692,9.924250121877453
38354.0,-0.028714897,-2.1919038,9.708028,9.952440628436232
38371.73572834646,-0.021536173,-2.2230117,9.712814,9.96398517781316
38389.82381889764,-0.021536173,-2.2182257,9.6912775,9.94192378993594
38407.91190944882,0.019143265,-2.2254045,9.638634,9.89222204760746
38426.0,-0.019143265,-2.2277975,9.696064,9.948723800452855
38444.73572834646,0.009571632,-2.21344,9.688885,9.938505963823946
38462.82381889764,-0.043072347,-2.2014754,9.67692,9.924269738891686
38480.91190944882,-0.067001425,-2.2110472,9.70085,9.949859779619
38499.0,0.0071787243,-2.2277975,9.696064,9.948707972756303
38516.73572834646,0.002392908,-2.1990826,9.669742,9.916646628482606
38534.82381889764,-0.016750356,-2.2206187,9.70085,9.951779675400568
38552.91190944882,-0.043072347,-2.1895108,9.648206,9.893618740826266
38571.0,-0.045465253,-2.2230117,9.69367,9.94540527964885
38588.73572834646,-0.045465253,-2.1942968,9.688885,9.93435946998827
38606.82381889764,-0.016750356,-2.2182257,9.686492,9.937249775296513
38624.91190944882,-0.002392908,-2.234976,9.679314,9.933994310305433
38643.0,0.011964541,-2.1990826,9.67692,9.923652962405734
38661.73572834646,-0.023929082,-2.2182257,9.67692,9.927934253584976
38679.82381889764,-0.002392908,-2.1703677,9.705635,9.945343253625637
38697.91190944882,-0.052643977,-2.1703677,9.655384,9.896449238437675
38716.0,0.0,-2.2086542,9.684099,9.932770349553977
38734.73572834646,-0.033500712,-2.2469406,9.652991,9.911109907760778
38752.82381889764,0.016750356,-2.2445478,9.686492,9.943158586031652
38770.91190944882,-0.021536173,-2.2469406,9.67692,9.934384055042157
38789.0,-0.088537596,-2.2206187,9.698457,9.949826857666627
38806.73572834646,-0.026321989,-2.1942968,9.703242,9.948293150292624
38824.82381889764,0.03828653,-2.21344,9.674527,9.924578336922352
38842.91190944882,0.023929082,-2.2206187,9.698457,9.949461703660356
38861.0,0.004785816,-2.215833,9.696064,9.946034178506515
38878.73572834646,-0.07896597,-2.2230117,9.715207,9.966607431598975
38896.82381889764,0.0071787243,-2.187118,9.731957,9.97469416723418
38914.91190944882,-0.047858164,-2.2254045,9.662563,9.915636102714274
38933.0,0.0,-2.215833,9.688885,9.939034582247615
38950.73572834646,-0.040679436,-2.2014754,9.66017,9.907927794560196
38968.82381889764,-0.004785816,-2.2038684,9.672134,9.920042083706567
38986.91190944882,-0.05025107,-2.2110472,9.67692,9.926431160143308
39005.0,-0.002392908,-2.234976,9.674527,9.929330094236654
39023.73572834646,-0.023929082,-2.215833,9.724778,9.974056127480855
39041.82381889764,-0.045465253,-2.2230117,9.672134,9.92441556070297
39059.91190944882,-0.011964541,-2.2110472,9.686492,9.935642915127998
39078.0,0.016750356,-2.1775463,9.648206,9.890898214090862
39095.73572834646,-0.03828653,-2.2230117,9.712814,9.96403546136365
39113.82381889764,0.014357449,-2.2110472,9.69367,9.942644211972468
39131.91190944882,0.0,-2.2230117,9.655384,9.907987747559687
39150.0,-0.040679436,-2.1895108,9.69367,9.93795001138212
39167.73572834646,-0.004785816,-2.2254045,9.6410265,9.894535869173314
39185.82381889764,-0.031107806,-2.1966896,9.686492,9.93249919005314
39203.91190944882,-0.03828653,-2.1919038,9.662563,9.908129584124488
39222.0,-0.031107806,-2.2038684,9.6912775,9.938755616379696
39239.73572834646,-0.016750356,-2.1919038,9.712814,9.957081833623572
39257.82381889764,0.004785816,-2.239762,9.696064,9.951392556460366
39275.91190944882,-0.0071787243,-2.2086542,9.67692,9.925773803369701
39294.0,-0.016750356,-2.1942968,9.633848,9.880599491327455
39312.73572834646,-0.011964541,-2.1919038,9.69367,9.938401455344605
39330.82381889764,-0.0071787243,-2.2325833,9.667349,9.921800059128508
39348.91190944882,-0.033500712,-2.2277975,9.69367,9.946428608682151
39367.0,-0.028714897,-2.2301903,9.67692,9.930627070126228
39385.73572834646,-0.0071787243,-2.184725,9.684099,9.92747945359287
39403.82381889764,-0.004785816,-2.215833,9.6912775,9.941368033119488
39421.91190944882,-0.021536173,-2.215833,9.688885,9.939057914805684
39440.0,0.004785816,-2.1942968,9.703242,9.948259478978674
39457.73572834646,-0.023929082,-2.1990826,9.672134,9.919007661885544
39475.82381889764,0.009571632,-2.21344,9.655384,9.905849203233165
39493.91190944882,-0.016750356,-2.1990826,9.669742,9.916660486404325
39512.0,0.028714897,-2.2110472,9.684099,9.933344235842155
39529.73572834646,0.0071787243,-2.2206187,9.621883,9.874807917653957
39547.82381889764,-0.014357449,-2.2182257,9.662563,9.91392228744261
39565.91190944882,0.014357449,-2.1942968,9.621883,9.868929883656133
39584.0,-0.0071787243,-2.163189,9.672134,9.911085424803863
39602.73572834646,-0.023929082,-2.187118,9.731957,9.974720286641544
39620.82381889764,-0.023929082,-2.1966896,9.708028,9.953483081238323
39638.91190944882,0.014357449,-2.234976,9.664956,9.920015037229218
39657.0,-0.047858164,-2.2086542,9.664956,9.914223028607694
39674.73572834646,-0.067001425,-2.2277975,9.696064,9.948930997049596
39692.82381889764,0.0071787243,-2.2062612,9.686492,9.934574338278013
39710.91190944882,0.028714897,-2.1775463,9.70085,9.942284604478662
39729.0,-0.033500712,-2.2206187,9.69367,9.94482316471209
39746.73572834646,0.0071787243,-2.2541194,9.674527,9.933658866564118
39764.82381889764,-0.028714897,-2.2206187,9.638634,9.891169665012091
39782.91190944882,-0.021536173,-2.2062612,9.698457,9.9462616329062
39801.0,0.026321989,-2.237369,9.655384,9.911253859967562
39819.73572834646,-0.047858164,-2.2230117,9.669742,9.922095633925442
39837.82381889764,-0.021536173,-2.2206187,9.624276,9.877160510071363
39855.91190944882,-0.023929082,-2.2517266,9.696064,9.954119869391212
39874.0,-0.023929082,-2.2589052,9.669742,9.93011256986125
39891.73572834646,-0.043072347,-2.1966896,9.67692,9.923209214373355
39909.82381889764,0.011964541,-2.21344,9.67692,9.926844436689906
39927.91190944882,-0.035893623,-2.2277975,9.686492,9.93944149936214
39946.0,-0.047858164,-2.215833,9.688885,9.939149804232526
39963.73572834646,-0.023929082,-2.2182257,9.648206,9.899948326912714
39981.82381889764,-0.033500712,-2.2038684,9.657777,9.906099878557255
39999.91190944882,0.009571632,-2.2182257,9.703242,9.953568314069264
40018.0,0.03828653,-2.234976,9.679314,9.934067801739197
40035.73572834646,-0.035893623,-2.184725,9.67692,9.920538915008454
40053.82381889764,-0.035893623,-2.1895108,9.688885,9.933264238844838
40071.91190944882,-0.0071787243,-2.2301903,9.664956,9.91893012326595
40090.0,-0.014357449,-2.2517266,9.6912775,9.94943909974304
40108.73572834646,0.019143265,-2.2565124,9.67692,9.936548463241582
40126.82381889764,-0.011964541,-2.2445478,9.708028,9.964132959044163
40144.91190944882,-0.03828653,-2.1942968,9.70085,9.945998945675074
40163.0,-0.043072347,-2.2277975,9.679314,9.932474839569357
40181.73572834646,-0.052643977,-2.1919038,9.67692,9.922197052224313
40199.82381889764,-0.055036888,-2.237369,9.652991,9.909040536161042
40217.91190944882,-0.028714897,-2.21344,9.684099,9.933877119267718
40236.0,-0.023929082,-2.1823323,9.684099,9.926979415229471
40253.73572834646,0.009571632,-2.184725,9.719993,9.962498625435948
40271.82381889764,-0.011964541,-2.2182257,9.715207,9.96523534389584
40289.91190944882,-0.009571632,-2.1966896,9.669742,9.916120570134838
40308.0,0.0,-2.21344,9.722385,9.971162756761368
40325.73572834646,-0.040679436,-2.2038684,9.686492,9.934123917442133
40343.82381889764,0.023929082,-2.2086542,9.727171,9.974797323223365
40361.91190944882,-0.0071787243,-2.239762,9.712814,9.96771494121509
40380.0,-0.026321989,-2.2254045,9.69367,9.945871309474358
40398.73572834646,-0.019143265,-2.2182257,9.686492,9.937254096922315
40416.82381889764,-0.019143265,-2.160796,9.657777,9.896568213271703
40434.91190944882,-0.045465253,-2.1942968,9.652991,9.899355574066506
40453.0,-0.05025107,-2.2206187,9.712814,9.963555007095701
40470.73572834646,0.016750356,-2.237369,9.679314,9.934546800291553
40488.82381889764,-0.057429794,-2.1823323,9.67692,9.920113564635345
40506.91190944882,-0.06221561,-2.2014754,9.674527,9.92203796569343
40525.0,0.0,-2.1966896,9.69367,9.939450853424859
40542.73572834646,0.002392908,-2.1751535,9.6912775,9.932379274704385
40560.82381889764,-0.040679436,-2.2206187,9.67692,9.92852370263087
40578.91190944882,-0.043072347,-2.1990826,9.662563,9.909739816850282
40597.0,-0.05025107,-2.2038684,9.6410265,9.889840902070011
40614.73572834646,-0.035893623,-2.215833,9.662563,9.913441781996305
40632.82381889764,-0.026321989,-2.1919038,9.681706,9.92676010519018
40650.91190944882,-0.011964541,-2.215833,9.67692,9.927378290391193
40669.0,0.002392908,-2.2062612,9.655384,9.90424325206576
40687.73572834646,-0.055036888,-2.1751535,9.681706,9.923192675648245
40705.82381889764,0.0,-2.2110472,9.703242,9.951966390175954
40723.91190944882,0.023929082,-2.2062612,9.636241,9.885610840695268
40742.0,0.0071787243,-2.237369,9.643419,9.899565727131902
40759.73572834646,-0.011964541,-2.2110472,9.679314,9.928645042575809
40777.82381889764,0.004785816,-2.2182257,9.652991,9.904583959271397
40795.91190944882,-0.014357449,-2.237369,9.748708,10.00216645771139
40814.0,0.028714897,-2.239762,9.748708,10.002732928116082
40831.73572834646,-0.033500712,-2.2062612,9.70085,9.948628121647223
40849.82381889764,0.011964541,-2.187118,9.681706,9.925676771213203
40867.91190944882,0.0,-2.2517266,9.672134,9.930782889334736
40886.0,0.016750356,-2.1966896,9.633848,9.881131162993348
40904.73572834646,-0.021536173,-2.2301903,9.686492,9.939936611821302
40922.82381889764,-0.004785816,-2.239762,9.712814,9.967713505076015
40940.91190944882,-0.002392908,-2.1727605,9.669742,9.910842762496685
40959.0,-0.023929082,-2.2038684,9.705635,9.95273627093117
40977.73572834646,0.009571632,-2.1942968,9.6410265,9.887589293469448
40995.82381889764,0.002392908,-2.2062612,9.724778,9.971905603139158
41013.91190944882,-0.031107806,-2.2756555,9.652991,9.91765148088777
41032.0,-0.002392908,-2.2182257,9.698457,9.948899394556072
41049.73572834646,-0.023929082,-2.2517266,9.70085,9.958781853450398
41067.82381889764,-0.019143265,-2.2110472,9.679314,9.928656288532638
41085.91190944882,-0.021536173,-2.1823323,9.686492,9.929308401919782
41104.0,-0.043072347,-2.2612982,9.669742,9.930721782577706
41121.73572834646,-0.11246668,-2.2086542,9.67692,9.92640835426832
41139.82381889764,0.03828653,-2.1990826,9.669742,9.916720248477628
41157.91190944882,0.023929082,-2.1775463,9.705635,9.946940798196902
41176.0,0.0071787243,-2.2182257,9.67692,9.927908011087888
41194.73572834646,0.021536173,-2.2254045,9.731957,9.983179656062328
41212.82381889764,-0.026321989,-2.1895108,9.67692,9.921563943089899
41230.91190944882,0.014357449,-2.2301903,9.669742,9.923601425748611
41249.0,-0.009571632,-2.1966896,9.662563,9.909120069100803
41266.73572834646,-0.040679436,-2.2206187,9.672134,9.923859044810087
41284.82381889764,0.009571632,-2.1942968,9.667349,9.913257121170135
41302.91190944882,-0.033500712,-2.2038684,9.70085,9.948097755084792
41321.0,-0.011964541,-2.1823323,9.684099,9.926957784722651
41338.73572834646,-0.009571632,-2.2612982,9.674527,9.935292337882734
41356.82381889764,0.021536173,-2.2230117,9.708028,9.959319880085607
41374.91190944882,-0.014357449,-2.2277975,9.66017,9.913736544121397
41393.0,0.028714897,-2.1990826,9.669742,9.916687913486864
41410.73572834646,0.011964541,-2.1895108,9.674527,9.919202254581108
41428.82381889764,-0.019143265,-2.2301903,9.621883,9.876980697789074
41446.91190944882,-0.011964541,-2.1990826,9.69367,9.939987198219326
41465.0,-0.031107806,-2.2230117,9.712814,9.964010463288716
41483.73572834646,-0.002392908,-2.1966896,9.645813,9.89278319562932
41501.82381889764,0.016750356,-2.1919038,9.705635,9.95007907486697
41519.91190944882,-0.031107806,-2.2038684,9.684099,9.931755990856486
41538.0,0.0,-2.2230117,9.655384,9.907987747559687
41555.73572834646,-0.009571632,-2.2038684,9.681706,9.92937856117359
41573.82381889764,-0.031107806,-2.187118,9.70085,9.944392568881126
41591.91190944882,-0.055036888,-2.2206187,9.655384,9.907603981654011
41610.0,-0.040679436,-2.2086542,9.674527,9.923521595956744
41627.73572834646,-0.031107806,-2.2325833,9.664956,9.919514623658207
41645.82381889764,0.016750356,-2.1966896,9.710421,9.955802417204517
41663.91190944882,-0.011964541,-2.2325833,9.67692,9.931130450662717
41682.0,-0.019143265,-2.2445478,9.679314,9.93617032873711
41700.73572834646,-0.011964541,-2.2254045,9.66017,9.913195890718674
41718.82381889764,-0.0071787243,-2.2086542,9.652991,9.902446170282433
41736.91190944882,-0.004785816,-2.2421548,9.681706,9.937943052847196
41755.0,-0.031107806,-2.1942968,9.657777,9.90396701952371
41773.73572834646,-0.023929082,-2.2230117,9.698457,9.949996070358583
41791.82381889764,-0.011964541,-2.2038684,9.66017,9.90838349599267
41809.91190944882,-0.014357449,-2.237369,9.731957,9.985840637039617
41828.0,0.0071787243,-2.2230117,9.669742,9.9219828108591
41845.73572834646,-0.021536173,-2.2254045,9.679314,9.931868329068994
41863.82381889764,-0.040679436,-2.2230117,9.669742,9.92206360498733
41881.91190944882,-0.011964541,-2.2612982,9.631455,9.893358283039667
41900.0,-0.03828653,-2.1942968,9.657777,9.903992169150714
41917.73572834646,0.035893623,-2.1990826,9.70085,9.947046966627575
41935.82381889764,0.040679436,-2.1966896,9.70085,9.9465366202393
41953.91190944882,0.0071787243,-2.1919038,9.7176,9.961738982855202
41972.0,-0.040679436,-2.165582,9.631455,9.871997043772971
41989.73572834646,-0.028714897,-2.2206187,9.7415285,9.991463830310934
42007.82381889764,0.014357449,-2.1942968,9.679314,9.924931440238167
42025.91190944882,-0.043072347,-2.1966896,9.705635,9.951213553082319
42044.0,-0.009571632,-2.1751535,9.6912775,9.932383598447437
42062.73572834646,-0.002392908,-2.2014754,9.684099,9.931176823751294
42080.82381889764,0.026321989,-2.2086542,9.662563,9.911809620409967
42098.91190944882,-0.009571632,-2.2301903,9.698457,9.951578195000138
42117.0,-0.026321989,-2.2014754,9.643419,9.891547745093842
42134.73572834646,0.004785816,-2.2325833,9.657777,9.912472329202371
42152.82381889764,0.0,-2.1823323,9.672134,9.915278633582583
42170.91190944882,-0.014357449,-2.1823323,9.688885,9.931629923994857
42189.0,0.016750356,-2.2493336,9.688885,9.946571005212807
42206.73572834646,-0.016750356,-2.1895108,9.624276,9.870203981778632
42224.82381889764,0.009571632,-2.1751535,9.650599,9.892696569869228
42242.91190944882,0.014357449,-2.187118,9.662563,9.907008378478077
42261.0,-0.019143265,-2.2541194,9.657777,9.917362417285164
42278.73572834646,-0.040679436,-2.1990826,9.710421,9.956399705484761
42296.82381889764,0.021536173,-2.1823323,9.66017,9.903631783506029
42314.91190944882,-0.035893623,-2.1942968,9.703242,9.948323080259623
42333.0,-0.019143265,-2.2062612,9.688885,9.936923441913262
42351.73572834646,-0.004785816,-2.134474,9.667349,9.900183778522083
42369.82381889764,-0.026321989,-2.2254045,9.657777,9.910891716563862
42387.91190944882,-0.057429794,-2.239762,9.681706,9.937568267353885
42406.0,-0.035893623,-2.1679747,9.67692,9.91686358373514
42423.73572834646,-0.045465253,-2.2182257,9.746315,9.995661480092043
42441.82381889764,-0.021536173,-2.234976,9.643419,9.89904599125009
42459.91190944882,0.023929082,-2.239762,9.688885,9.944425521910976
42478.0,-0.05025107,-2.1966896,9.688885,9.934911318779314
42495.73572834646,-0.014357449,-2.1942968,9.674527,9.920262963075173
42513.82381889764,0.016750356,-2.2206187,9.674527,9.926122136007837
42531.91190944882,-0.06221561,-2.2014754,9.681706,9.929038009261967
42550.0,0.0,-2.2014754,9.655384,9.903177981045335
42568.73572834646,0.019143265,-2.2230117,9.705635,9.95698238605235
42586.82381889764,0.045465253,-2.2277975,9.703242,9.955805045339156
42604.91190944882,-0.026321989,-2.2086542,9.636241,9.886151264893915
42623.0,-0.021536173,-2.1895108,9.667349,9.912217614533345
42641.73572834646,-0.016750356,-2.2421548,9.688885,9.944950038326697
42659.82381889764,-0.033500712,-2.1823323,9.650599,9.894329569209264
42677.91190944882,-0.009571632,-2.1727605,9.645813,9.887501617570964
42696.0,-0.0071787243,-2.1942968,9.710421,9.955263229961016
42713.73572834646,-0.004785816,-2.1751535,9.698457,9.939385485705142
42731.82381889764,0.016750356,-2.2038684,9.6912775,9.938721048553024
42749.91190944882,-0.031107806,-2.1966896,9.652991,9.89983071271541
42768.0,0.023929082,-2.234976,9.650599,9.906046203220654
42785.73572834646,-0.004785816,-2.21344,9.6912775,9.940834930710851
42803.82381889764,-0.031107806,-2.1799393,9.664956,9.907798823614387
42821.91190944882,-0.016750356,-2.2254045,9.664956,9.91786671845223
42840.0,-0.026321989,-2.2517266,9.669742,9.928488096121002
42858.73572834646,-0.019143265,-2.1942968,9.674527,9.920271043918813
42876.82381889764,-0.011964541,-2.1990826,9.715207,9.960991641634537
42894.91190944882,-0.023929082,-2.2301903,9.688885,9.942274081838846
42913.0,0.016750356,-2.239762,9.669742,9.925760662923226
42930.73572834646,0.014357449,-2.1895108,9.715207,9.958886018652258
42948.82381889764,-0.009571632,-2.2038684,9.69367,9.941044492886936
42966.91190944882,-0.057429794,-2.266084,9.662563,9.92489589896357
42985.0,-0.021536173,-2.165582,9.681706,9.920969724573677
43002.73572834646,-0.035893623,-2.1799393,9.662563,9.905480676515682
43020.82381889764,-0.028714897,-2.2325833,9.722385,9.975471057798403
43038.91190944882,0.021536173,-2.2230117,9.698457,9.949990603308796
43057.0,0.004785816,-2.2182257,9.6912775,9.941901615997892
43074.73572834646,-0.0071787243,-2.1823323,9.664956,9.908279380580762
43092.82381889764,0.019143265,-2.2277975,9.672134,9.925402978194745
43110.91190944882,-0.045465253,-2.215833,9.681706,9.932140456294169
43129.0,-0.026321989,-2.2182257,9.636241,9.888294024417275
43147.73572834646,-0.035893623,-2.2565124,9.684099,9.943586375414396
43165.82381889764,-0.028714897,-2.2038684,9.686492,9.934082128505494
43183.91190944882,-0.045465253,-2.2230117,9.684099,9.936076768492091
43202.0,-0.033500712,-2.1919038,9.708028,9.952455587187664
43219.73572834646,-0.0071787243,-2.2110472,9.648206,9.89831603219186
43237.82381889764,-0.002392908,-2.239762,9.684099,9.93973404998613
43255.91190944882,0.016750356,-2.1895108,9.710421,9.954220919538795
43274.0,-0.021536173,-2.1895108,9.69367,9.937890088895335
43292.73572834646,-0.002392908,-2.2206187,9.679314,9.930774020558236
43310.82381889764,0.009571632,-2.184725,9.6912775,9.934484109593733
43328.91190944882,-0.06221561,-2.2206187,9.686492,9.937964854988236
43347.0,-0.035893623,-2.1966896,9.684099,9.930181619322036
43364.73572834646,-0.057429794,-2.2277975,9.679314,9.932547477502492
43382.82381889764,-0.052643977,-2.2110472,9.696064,9.945107249348204
43400.91190944882,0.0,-2.1919038,9.650599,9.896388398160989
43419.0,-0.052643977,-2.2230117,9.667349,9.919787754506256
43437.73572834646,-0.0071787243,-2.2014754,9.67692,9.924178865643633
43455.82381889764,-0.03828653,-2.2062612,9.703242,9.95097782389092
43473.91190944882,-0.002392908,-2.1942968,9.703242,9.948258615610218
43492.0,-0.026321989,-2.2110472,9.684099,9.933337606742949
43509.73572834646,-0.023929082,-2.2038684,9.664956,9.913071320605937
43527.82381889764,-0.031107806,-2.215833,9.662563,9.913425609165186
43545.91190944882,-0.023929082,-2.2325833,9.712814,9.966130472304696
43564.0,0.002392908,-2.2230117,9.696064,9.94763508761965
43581.73572834646,-0.021536173,-2.2230117,9.712814,9.96398517781316
43599.82381889764,-0.033500712,-2.2062612,9.688885,9.936961473385864
43617.91190944882,-0.023929082,-2.1942968,9.684099,9.92961653284036
43636.0,0.009571632,-2.2110472,9.712814,9.961303987699752
43653.73572834646,-0.028714897,-2.2014754,9.67692,9.92421781142045
43671.82381889764,-0.014357449,-2.215833,9.696064,9.946043389827272
43689.91190944882,0.03828653,-2.2230117,9.662563,9.915057771172357
43708.0,-0.03828653,-2.1919038,9.70085,9.945471273365275
43726.73572834646,-0.016750356,-2.2254045,9.633848,9.88755445244932
43744.82381889764,-0.031107806,-2.2469406,9.672134,9.929747522947324
43762.91190944882,0.0071787243,-2.1823323,9.70085,9.943295053663341
43781.0,0.014357449,-2.2421548,9.686492,9.942614925137592
43798.73572834646,0.052643977,-2.2062612,9.705635,9.95337684528044
43816.82381889764,0.0,-2.2445478,9.684099,9.940813259904132
43834.91190944882,-0.026321989,-2.2206187,9.696064,9.947135132790276
43853.0,-0.040679436,-2.2086542,9.643419,9.893196561337085
43870.73572834646,-0.021536173,-2.1942968,9.681706,9.927277236164693
43888.82381889764,-0.009571632,-2.2110472,9.70085,9.949638790391688
43906.91190944882,-0.023929082,-2.237369,9.633848,9.890268951359735
43925.0,-0.0071787243,-2.2230117,9.696064,9.94763739007989
43943.73572834646,0.0071787243,-2.2062612,9.652991,9.90191270728989
43961.82381889764,-0.033500712,-2.21344,9.66017,9.910566248212286
43979.91190944882,-0.021536173,-2.1703677,9.70085,9.940696679933998
43998.0,-0.055036888,-2.215833,9.703242,9.953182920729112
44015.73572834646,0.009571632,-2.1823323,9.657777,9.901278829802312
44033.82381889764,-0.052643977,-2.1919038,9.66017,9.905861804288854
44051.91190944882,-0.014357449,-2.2206187,9.67692,9.928450746895585
44070.0,0.0071787243,-2.2301903,9.655384,9.909603447956565
44088.73572834646,-0.033500712,-2.2254045,9.672134,9.924904211138804
44106.82381889764,0.03828653,-2.2493336,9.672134,9.930314376515197
44124.91190944882,-0.023929082,-2.2230117,9.643419,9.896357088790968
44143.0,-0.004785816,-2.2254045,9.667349,9.920185723082811
44160.73572834646,-0.026321989,-2.1895108,9.715207,9.958910454626578
44178.82381889764,-0.040679436,-2.1727605,9.674527,9.915594570201149
44196.91190944882,-0.016750356,-2.2062612,9.667349,9.915921830311722
44215.0,0.0,-2.2325833,9.664956,9.919465846172107
44233.73572834646,-0.011964541,-2.239762,9.70085,9.95606185644632
44251.82381889764,0.016750356,-2.21344,9.67692,9.92685135853389
44269.91190944882,-0.004785816,-2.2445478,9.708028,9.964126925090007
44288.0,0.021536173,-2.2206187,9.6410265,9.8934828645548
44305.73572834646,0.009571632,-2.2062612,9.681706,9.929909927547207
44323.82381889764,-0.023929082,-2.2086542,9.657777,9.90713795996967
44341.91190944882,-0.023929082,-2.2038684,9.669742,9.917737588384153
44360.0,-0.0071787243,-2.2469406,9.667349,9.925040568270335
44377.73572834646,0.004785816,-2.2182257,9.669742,9.920910165238835
44395.82381889764,0.009571632,-2.184725,9.614705,9.859800564858762
44413.91190944882,-0.05025107,-2.1751535,9.712814,9.953520669451306
44432.0,-0.06460852,-2.187118,9.638634,9.883871953477371
44449.73572834646,-0.03828653,-2.2421548,9.6912775,9.94734052837987
44467.82381889764,-0.004785816,-2.184725,9.67692,9.920475135600098
44485.91190944882,-0.014357449,-2.2014754,9.662563,9.910187879254154
44504.0,-0.004785816,-2.2110472,9.657777,9.907643978585002
44522.73572834646,-0.057429794,-2.2301903,9.672134,9.926088004315142
44540.82381889764,-0.002392908,-2.187118,9.715207,9.958350160783748
44558.91190944882,-0.026321989,-2.1775463,9.684099,9.925934423395592
44577.0,-0.009571632,-2.2182257,9.681706,9.93257509121958
44594.73572834646,-0.047858164,-2.215833,9.621883,9.873846198591481
44612.82381889764,-0.002392908,-2.184725,9.6410265,9.885465139553927
44630.91190944882,0.033500712,-2.239762,9.684099,9.939790216908479
44649.0,-0.05025107,-2.1942968,9.686492,9.932048675001063
44666.73572834646,-0.009571632,-2.215833,9.681706,9.93204100728869
44684.82381889764,-0.014357449,-2.1584032,9.648206,9.886697604789378
44702.91190944882,0.011964541,-2.187118,9.681706,9.925676771213203
44721.0,-0.03828653,-2.2325833,9.681706,9.935860562641484
44738.73572834646,-0.052643977,-2.2206187,9.662563,9.914587360453943
44756.82381889764,-0.016750356,-2.2469406,9.672134,9.929712923761214
44774.91190944882,0.009571632,-2.1919038,9.664956,9.910393956171953
44793.0,0.014357449,-2.1966896,9.674527,9.920792509110294
44811.73572834646,-0.009571632,-2.1895108,9.664956,9.909864965850533
44829.82381889764,0.0071787243,-2.215833,9.650599,9.901718460791166
44847.91190944882,-0.019143265,-2.2230117,9.703242,9.954649807677603
44866.0,-0.045465253,-2.2182257,9.674527,9.925677055954411
44884.73572834646,-0.028714897,-2.2230117,9.684099,9.936014241407246
44902.82381889764,-0.009571632,-2.1895108,9.708028,9.951877049493717
44920.91190944882,-0.0071787243,-2.187118,9.672134,9.916335653554825
44939.0,-0.040679436,-2.187118,9.617098,9.862743731033534
44956.73572834646,-0.0071787243,-2.239762,9.746315,10.000362064943028
44974.82381889764,0.009571632,-2.184725,9.648206,9.89247157995413
44992.91190944882,-0.002392908,-2.2469406,9.669742,9.927369144567006
45011.0,0.014357449,-2.2182257,9.643419,9.895264594847541
45028.73572834646,0.0071787243,-2.2254045,9.621883,9.875885235683524
45046.82381889764,-0.045465253,-2.234976,9.674527,9.929433895420994
45064.91190944882,-0.047858164,-2.2086542,9.686492,9.935218721553294
45083.0,-0.0598227,-2.2038684,9.633848,9.882896436119214
45101.73572834646,0.019143265,-2.2445478,9.669742,9.926846006544258
45119.82381889764,0.014357449,-2.2110472,9.69367,9.942644211972468
45137.91190944882,-0.011964541,-2.2277975,9.66017,9.913733367412481
45156.0,-0.023929082,-2.1703677,9.66017,9.901007675134318
45173.73572834646,-0.021536173,-2.2230117,9.70085,9.95232312314991
45191.82381889764,-0.03828653,-2.21344,9.69367,9.94323994283953
45209.91190944882,-0.0071787243,-2.2038684,9.672134,9.920043526747104
45228.0,-0.009571632,-2.2182257,9.681706,9.93257509121958
45245.73572834646,-0.035893623,-2.2254045,9.621883,9.875947853572402
45263.82381889764,0.028714897,-2.2301903,9.672134,9.925963400772734
45281.91190944882,-0.011964541,-2.234976,9.672134,9.92700543894146
45300.0,-0.019143265,-2.1990826,9.669742,9.916664817002822
45318.73572834646,-0.06460852,-2.1679747,9.719993,9.95904375333022
45336.82381889764,0.009571632,-2.1895108,9.667349,9.912198840179547
45354.91190944882,-0.004785816,-2.2254045,9.6912775,9.943505804024115
45373.0,-0.002392908,-2.1799393,9.67692,9.919421443012348
45390.73572834646,-0.0071787243,-2.163189,9.681706,9.920426868549537
45408.82381889764,-0.026321989,-2.2062612,9.703242,9.9509389828445
45426.91190944882,-0.03828653,-2.165582,9.66017,9.900004832625259
45445.0,-0.028714897,-2.237369,9.686492,9.941567877026978
45462.73572834646,-0.045465253,-2.187118,9.650599,9.895433961881377
45480.82381889764,-0.0071787243,-2.1942968,9.655384,9.901587254982346
45498.91190944882,-0.0071787243,-2.187118,9.66017,9.90466663290121
45517.0,-0.026321989,-2.2325833,9.70085,9.954476970742553
45534.73572834646,-0.019143265,-2.1942968,9.66017,9.906270203259403
45552.82381889764,-0.021536173,-2.1942968,9.67692,9.922609683930823
45570.91190944882,-0.052643977,-2.1895108,9.66017,9.905332571929678
45589.0,0.004785816,-2.2062612,9.652991,9.901911261607086
45607.73572834646,-0.028714897,-2.184725,9.638634,9.883173238231267
45625.82381889764,-0.03828653,-2.2086542,9.66017,9.909515813724559
45643.91190944882,-0.026321989,-2.1919038,9.698457,9.943098274502185
45662.0,-0.033500712,-2.2014754,9.631455,9.879905953577428
45679.73572834646,-0.031107806,-2.215833,9.66017,9.911093179280638
45697.82381889764,0.016750356,-2.1799393,9.684099,9.926438906673008
45715.91190944882,-0.023929082,-2.2086542,9.6912775,9.939798064254084
45734.0,0.0,-2.2469406,9.679314,9.936692687736919
45752.73572834646,-0.004785816,-2.2206187,9.643419,9.895792051391615
45770.82381889764,-0.021536173,-2.2230117,9.652991,9.905679182729742
45788.91190944882,0.0,-2.1895108,9.688885,9.93319938824051
45807.0,-0.019143265,-2.184725,9.636241,9.880816282084233
45824.73572834646,-0.05025107,-2.2230117,9.667349,9.919775344037486
45842.82381889764,0.002392908,-2.2038684,9.686492,9.93404091579007
45860.91190944882,-0.019143265,-2.165582,9.724778,9.96300250991652
45879.0,0.016750356,-2.2230117,9.674527,9.92665775910966
45897.73572834646,-0.06460852,-2.268477,9.650599,9.913839983537489
45915.82381889764,-0.057429794,-2.237369,9.669742,9.925372968808974
45933.91190944882,-0.026321989,-2.1942968,9.681706,9.927288772068191
45952.0,-0.011964541,-2.2110472,9.686492,9.935642915127998
45969.73572834646,-0.052643977,-2.1799393,9.708028,9.949910270388516
45987.82381889764,-0.0071787243,-2.2277975,9.643419,9.897406894972532
46005.91190944882,-0.043072347,-2.2110472,9.624276,9.875083466577887
46024.0,-0.028714897,-2.215833,9.6912775,9.94140835149653
46041.73572834646,-0.009571632,-2.1942968,9.664956,9.910923496050476
46059.82381889764,-0.002392908,-2.237369,9.650599,9.906557768820141
46077.91190944882,0.023929082,-2.1799393,9.67692,9.91945001696414
46096.0,-0.045465253,-2.2038684,9.698457,9.94581174136118
46113.73572834646,-0.071787246,-2.184725,9.703242,9.94641051057502
46131.82381889764,-0.06460852,-2.1823323,9.669742,9.913155848419002
46149.91190944882,-0.014357449,-2.2301903,9.650599,9.9049490644504
46168.0,-0.028714897,-2.2206187,9.667349,9.919153625380565
46186.73572834646,-0.011964541,-2.1966896,9.73435,9.979136148559627
46204.82381889764,-0.004785816,-2.2038684,9.652991,9.901378392660002
46222.91190944882,0.004785816,-2.2421548,9.684099,9.940274367088607
46241.0,-0.045465253,-2.1942968,9.667349,9.91335675861217
46258.73572834646,-0.011964541,-2.2038684,9.681706,9.929381156204848
46276.82381889764,-0.045465253,-2.2206187,9.69367,9.944870666274149
46294.91190944882,-0.011964541,-2.2325833,9.722385,9.975436904211525
46313.0,-0.08375178,-2.1775463,9.650599,9.893572828260671
46330.73572834646,-0.03828653,-2.2014754,9.724778,9.970921068009144
46348.82381889764,-0.019143265,-2.2541194,9.669742,9.92901460773501
46366.91190944882,0.07896597,-2.1919038,9.698457,9.943376995453882
46385.0,-0.043072347,-2.2062612,9.743921,9.990667653562625
46403.73572834646,-0.11485959,-2.2206187,9.6410265,9.894126141802868
46421.82381889764,0.016750356,-2.2014754,9.650599,9.89852693940024
46439.91190944882,0.009571632,-2.2230117,9.662563,9.914988470161981
46458.0,0.0,-2.215833,9.662563,9.913376801718877
46476.73572834646,-0.07896597,-2.2469406,9.66017,9.91835984995737
46494.82381889764,-0.07418015,-2.2206187,9.664956,9.917057254416742
46512.91190944882,0.004785816,-2.1966896,9.722385,9.96745896359789
46531.0,0.040679436,-2.2038684,9.696064,9.943457539162514
46548.73572834646,-0.009571632,-2.2182257,9.650599,9.90225620407191
46566.82381889764,-0.023929082,-2.1919038,9.674527,9.919752393237887
46584.91190944882,0.004785816,-2.1679747,9.698457,9.93781693254227
46603.0,0.023929082,-2.1942968,9.6912775,9.936617665456483
46620.73572834646,0.011964541,-2.2062612,9.674527,9.922913095789752
46638.82381889764,-0.045465253,-2.2062612,9.648206,9.897349877128311
46656.91190944882,-0.09093051,-2.21344,9.662563,9.913259238021462
46675.0,0.021536173,-2.2110472,9.638634,9.889006973065158
46693.73572834646,-0.002392908,-2.215833,9.662563,9.913377090521005
46711.82381889764,0.011964541,-2.2110472,9.710421,9.958973283833538
46729.91190944882,-0.08135887,-2.2277975,9.698457,9.951370214577635
46748.0,0.019143265,-2.2086542,9.67692,9.925789667637156
46765.73572834646,0.004785816,-2.187118,9.667349,9.91166710184315
46783.82381889764,0.002392908,-2.2086542,9.708028,9.956101985715613
46801.91190944882,-0.011964541,-2.2206187,9.696064,9.947107501838262
46820.0,-0.0598227,-2.2110472,9.669742,9.919486822544155
46837.73572834646,-0.021536173,-2.2612982,9.688885,9.94929273362161
46855.82381889764,0.002392908,-2.2086542,9.686492,9.935103742148359
46873.91190944882,-0.026321989,-2.1823323,9.6912775,9.9339884586572
46892.0,-0.016750356,-2.1919038,9.633848,9.880068326179964
46909.73572834646,-0.004785816,-2.1751535,9.672134,9.913702223011999
46927.82381889764,-0.035893623,-2.2206187,9.679314,9.930838598706444
46945.91190944882,-0.021536173,-2.1990826,9.6410265,9.888671299121663
46964.0,0.009571632,-2.163189,9.688885,9.92743525836785
46982.73572834646,-0.031107806,-2.1942968,9.648206,9.894634160014224
47000.82381889764,-0.028714897,-2.2014754,9.679314,9.92655217045228
47018.91190944882,0.016750356,-2.21344,9.6410265,9.89186479799074
47037.0,-0.06221561,-2.2086542,9.703242,9.951629488072257
47054.73572834646,0.035893623,-2.1823323,9.70085,9.943357247041634
47072.82381889764,0.009571632,-2.2014754,9.674527,9.921847520833673
47090.91190944882,-0.08375178,-2.239762,9.636241,9.893466975099184
47109.0,0.0,-2.2206187,9.652991,9.90511901275652
47126.73572834646,0.055036888,-2.21344,9.664956,9.915327537432978
47144.82381889764,-0.031107806,-2.2589052,9.674527,9.934792049756762
47162.91190944882,-0.1172525,-2.2708697,9.662563,9.926516059126854
47181.0,-0.009571632,-2.184725,9.708028,9.950825221585804
47198.73572834646,0.033500712,-2.1727605,9.67692,9.917902559234223
47216.82381889764,-0.1196454,-2.2325833,9.703242,9.957492080024169
47234.91190944882,-0.08375178,-2.2541194,9.609919,9.871099828117966
47253.0,0.014357449,-2.2110472,9.686492,9.935646084831808
47271.73572834646,-0.004785816,-2.2254045,9.629062,9.882878279757321
47289.82381889764,-0.040679436,-2.1823323,9.698457,9.941041055391812
47307.91190944882,-0.047858164,-2.2325833,9.70085,9.954557213547991
47326.0,-0.021536173,-2.215833,9.69367,9.943722530297014
47344.73572834646,-0.014357449,-2.2277975,9.609919,9.864777292159667
47362.82381889764,-0.011964541,-2.1799393,9.655384,9.898420009748113
47380.91190944882,-0.057429794,-2.2110472,9.7176,9.966131529428393
47399.0,-0.021536173,-2.2493336,9.696064,9.953573355480556
47416.73572834646,0.014357449,-2.2206187,9.686492,9.937780477208957
47434.82381889764,-0.031107806,-2.2230117,9.719993,9.971008606654596
47452.91190944882,0.014357449,-2.2254045,9.648206,9.901540806530974
47471.0,-0.016750356,-2.1942968,9.66017,9.906265868116826
47488.73572834646,-0.016750356,-2.1895108,9.66017,9.905206840174655
47506.82381889764,-0.06221561,-2.2206187,9.650599,9.902983351077511
47524.91190944882,-0.0071787243,-2.2230117,9.674527,9.926646222473552
47543.0,-0.014357449,-2.2062612,9.645813,9.894923094695391
47561.73572834646,0.021536173,-2.234976,9.674527,9.929353161261435
47579.82381889764,-0.043072347,-2.1679747,9.662563,9.902883077967001
47597.91190944882,0.002392908,-2.2182257,9.688885,9.93956857843308
47616.0,0.021536173,-2.2230117,9.629062,9.882362056964336
47633.73572834646,-0.06221561,-2.1919038,9.669742,9.915252059183674
47651.82381889764,-0.05025107,-2.187118,9.667349,9.911793329350706
47669.91190944882,0.004785816,-2.1990826,9.681706,9.928313968448698
47688.0,-0.0071787243,-2.2182257,9.724778,9.974561841981185
47705.73572834646,0.002392908,-2.215833,9.662563,9.913377090521005
47723.82381889764,-0.021536173,-2.215833,9.667349,9.918065152963933
47741.91190944882,-0.028714897,-2.2086542,9.681706,9.930478789611474
47760.0,0.009571632,-2.2828343,9.679314,9.944875241449319
47778.73572834646,0.0071787243,-2.237369,9.705635,9.960181842188854
47796.82381889764,-0.011964541,-2.1799393,9.69367,9.935769551012434
47814.91190944882,-0.004785816,-2.1751535,9.715207,9.955730144265965
47833.0,0.014357449,-2.1966896,9.669742,9.916126344579013
47850.73572834646,0.016750356,-2.2469406,9.657777,9.915728879718499
47868.82381889764,-0.040679436,-2.1727605,9.650599,9.89224969689274
47886.91190944882,-0.0071787243,-2.2325833,9.6912775,9.945116354650041
47905.0,-0.002392908,-2.1703677,9.688885,9.92899764439679
47922.73572834646,-0.028714897,-2.184725,9.664956,9.90884566197651
47940.82381889764,0.0071787243,-2.2301903,9.674527,9.928256291113039
47958.91190944882,-0.033500712,-2.184725,9.67692,9.920530545778766
47977.0,-0.040679436,-2.2086542,9.664956,9.91419097423622
47994.73572834646,-0.035893623,-2.184725,9.643419,9.887863352987745
48012.82381889764,-0.002392908,-2.2421548,9.696064,9.951930514491535
48030.91190944882,-0.026321989,-2.2086542,9.698457,9.946804230662808
48049.0,0.026321989,-2.2254045,9.6410265,9.894569723309218
48067.73572834646,-0.021536173,-2.2230117,9.669742,9.922003586556919
48085.82381889764,-0.03828653,-2.1966896,9.696064,9.941859390940087
48103.91190944882,0.021536173,-2.234976,9.631455,9.887391311379787
48122.0,0.002392908,-2.215833,9.679314,9.929704986579093
48140.73572834646,-0.06221561,-2.1942968,9.67692,9.922781359831422
48158.82381889764,-0.021536173,-2.2038684,9.6410265,9.889736685320207
48176.91190944882,0.004785816,-2.215833,9.67692,9.927372234097188
48195.0,-0.033500712,-2.2062612,9.643419,9.892635684684388
48212.73572834646,-0.067001425,-2.21344,9.672134,9.922397993353623
48230.82381889764,-0.03828653,-2.1942968,9.696064,9.941330967077079
48248.91190944882,-0.040679436,-2.1895108,9.686492,9.930948576339215
48267.0,-0.014357449,-2.2493336,9.657777,9.916267662894127
48284.73572834646,-0.011964541,-2.2254045,9.662563,9.915527825982368
48302.82381889764,-0.016750356,-2.2014754,9.667349,9.914858102818833
48320.91190944882,0.014357449,-2.1727605,9.674527,9.915521519336792
48339.0,-0.06221561,-2.1966896,9.67692,9.923310771475206
48357.73572834646,-0.045465253,-2.239762,9.655384,9.911863653891247
48375.82381889764,0.019143265,-2.2110472,9.662563,9.912326665026315
48393.91190944882,0.019143265,-2.2182257,9.684099,9.934921497552779
48412.0,-0.023929082,-2.2038684,9.667349,9.915404440227586
48429.73572834646,-0.028714897,-2.1966896,9.664956,9.911490514851634
48447.82381889764,-0.043072347,-2.2062612,9.674527,9.922999364276434
48465.91190944882,-0.004785816,-2.1727605,9.681706,9.922516926910784
48484.0,0.002392908,-2.1703677,9.645813,9.88697173608689
48501.73572834646,-0.040679436,-2.234976,9.703242,9.957393125093198
48519.82381889764,0.014357449,-2.1703677,9.684099,9.924337536145476
48537.91190944882,0.023929082,-2.1823323,9.698457,9.940986623541832
48556.0,-0.011964541,-2.2254045,9.66017,9.913195890718674
48573.73572834646,-0.035893623,-2.215833,9.722385,9.971758838052896
48591.82381889764,-0.021536173,-2.2325833,9.7176,9.9707894250248
48609.91190944882,-0.028714897,-2.2038684,9.679314,9.92708315571217
48628.0,-0.05025107,-2.1703677,9.672134,9.912779491000263
48646.73572834646,-0.0071787243,-2.184725,9.662563,9.906472560335319
48664.82381889764,-0.033500712,-2.2254045,9.650599,9.903918847866523
48682.91190944882,0.002392908,-2.1919038,9.667349,9.912723373637748
48701.0,-0.014357449,-2.1919038,9.727171,9.971083394899335
48718.73572834646,-0.0071787243,-2.215833,9.657777,9.908714548300429
48736.82381889764,0.004785816,-2.1895108,9.681706,9.926198240907112
48754.91190944882,0.009571632,-2.2230117,9.688885,9.940642090815917
48773.0,-0.031107806,-2.2062612,9.727171,9.974287535531577
48790.73572834646,-0.026321989,-2.1966896,9.667349,9.91381736434831
48808.82381889764,-0.021536173,-2.234976,9.67692,9.931684762099707
48826.91190944882,-0.0071787243,-2.2254045,9.698457,9.950504756219747
48845.0,-0.035893623,-2.1703677,9.6410265,9.882366937079276
48863.73572834646,-0.019143265,-2.2014754,9.681706,9.928861539564142
48881.82381889764,-0.014357449,-2.2062612,9.69367,9.94158099538837
48899.91190944882,-0.026321989,-2.1966896,9.722385,9.967492570053818
48918.0,-0.009571632,-2.1895108,9.715207,9.95888026900137
48936.73572834646,-0.043072347,-2.2014754,9.662563,9.910271080694526
48954.82381889764,-0.03828653,-2.239762,9.645813,9.902510192168068
48972.91190944882,-0.028714897,-2.2301903,9.722385,9.974935759580049
48991.0,-0.014357449,-2.1895108,9.657777,9.902869294370568
49008.73572834646,-0.011964541,-2.2230117,9.6410265,9.894004050043668
49026.82381889764,-0.023929082,-2.2038684,9.67692,9.924736228831673
49044.91190944882,-0.009571632,-2.1966896,9.624276,9.871789368653653
49063.0,-0.031107806,-2.2469406,9.705635,9.962382270759713
49080.73572834646,-0.002392908,-2.1775463,9.688885,9.93056927662646
49098.82381889764,-0.019143265,-2.2517266,9.636241,9.895846591162549
49116.91190944882,-0.057429794,-2.1919038,9.648206,9.894221519054915
49135.0,-0.009571632,-2.1799393,9.703242,9.94510594606149
49153.73572834646,-0.021536173,-2.1990826,9.672134,9.919002177755898
49171.82381889764,-0.002392908,-2.21344,9.672134,9.922172064299463
49189.91190944882,-0.023929082,-2.2014754,9.698457,9.945206620207522
49208.0,0.004785816,-2.1919038,9.698457,9.943064585596245
49225.73572834646,0.023929082,-2.239762,9.684099,9.939762565545033
49243.82381889764,0.004785816,-2.1895108,9.664956,9.90986149899621
49261.91190944882,0.035893623,-2.1679747,9.6410265,9.881841661639514
49280.0,-0.047858164,-2.21344,9.672134,9.922287193556606
49297.73572834646,-0.088537596,-2.184725,9.727171,9.969890565837293
49315.82381889764,-0.0071787243,-2.1823323,9.684099,9.926953170208211
