timestamp,accel_x,accel_y,accel_z,magnitude
1301221.9065031828,-9.535739,0.30629224,3.2998202,10.095194231154409
1301223.062717014,-9.530953,0.31107804,3.306999,10.093169820288384
1301224.218930845,-9.526167,0.30868515,3.2399976,10.066813233676548
1301225.3751446758,-9.578811,0.34936458,3.2615337,10.12488409117434
1301226.531358507,-9.574025,0.3517575,3.2376046,10.112752918240039
1301227.687572338,-9.547704,0.34936458,3.2687125,10.097781374590697
1301228.843786169,-9.538132,0.33979294,3.3189635,10.104797870607312
1301230.0,-9.521381,0.34218585,3.3022132,10.083570762450941
1301230.9065031828,-9.5405245,0.34936458,3.3692145,10.123994749695846
1301232.062717014,-9.530953,0.4115802,3.2830698,10.088954884472082
1301233.218930845,-9.514202,0.3804724,3.3141778,10.082091719181024
1301234.3751446758,-9.514202,0.39004403,3.2711053,10.068381395528812
1301235.531358507,-9.497452,0.42354473,3.2854629,10.058590910156909
1301236.687572338,-9.461558,0.44747382,3.3141778,10.03519242949343
1301237.843786169,-9.516596,0.4450809,3.2902486,10.079158312307769
1301239.0,-9.487881,0.46422416,3.2998202,10.05605306734291
1301239.9065031828,-9.432844,0.4785816,3.3117847,10.008771361927929
1301241.062717014,-9.451987,0.42833054,3.3500714,10.037255784564008
1301242.218930845,-9.408915,0.37807947,3.3476784,9.993876937039351
1301243.3751446758,-9.380199,0.36850783,3.3668218,9.972934389302255
1301244.531358507,-9.404129,0.33022133,3.4194658,10.01196457908225
1301245.687572338,-9.373021,0.2991135,3.4290373,9.98505324758534
1301246.843786169,-9.382592,0.2919348,3.4457877,9.999585563381432
1301248.0,-9.392164,0.27757734,3.4984317,10.026406043151372
1301248.9065031828,-9.361056,0.27518442,3.462538,9.98470156297076
1301250.062717014,-9.382592,0.22493336,3.4745026,10.007786766928623
1301251.218930845,-9.368236,0.24168372,3.4697168,9.993057162070638
1301252.3751446758,-9.358664,0.22014755,3.4505734,9.976949112702467
1301253.531358507,-9.425665,0.2368979,3.4529665,10.041028779829867
1301254.687572338,-9.428058,0.27997026,3.4457877,10.041917838307569
1301255.843786169,-9.394557,0.28954187,3.4792883,10.022324221219796
1301257.0,-9.384986,0.2680057,3.484074,10.014417652210462
1301257.9065031828,-9.361056,0.32064968,3.5008245,9.9993978734832
1301259.062717014,-9.329948,0.3326142,3.5008245,9.970673701839104
1301260.218930845,-9.296448,0.35415038,3.5630403,9.962159609631952
1301261.3751446758,-9.279697,0.38765112,3.515182,9.93073785253494
1301262.531358507,-9.286877,0.4115802,3.491253,9.929971308325621
1301263.687572338,-9.262947,0.40200856,3.464931,9.897956599312975
1301264.843786169,-9.286877,0.4402951,3.4768956,9.926164778075789
1301266.0,-9.296448,0.5001178,3.3859649,9.906504001645224
1301267.9065031828,-9.294055,0.51926106,3.3500714,9.893031323944916
1301269.062717014,-9.224661,0.37329367,3.5247536,9.882186330448137
1301270.218930845,-9.160052,0.27518442,3.6348274,9.858714385532501
1301271.3751446758,-9.100229,0.21536173,3.6276486,9.79899907604198
1301272.531358507,-9.143302,0.20339718,3.6348274,9.841408034617135
1301273.687572338,-9.19116,0.24646953,3.5606472,9.859836604005478
1301274.843786169,-9.19116,0.21775463,3.5295393,9.847968668447871
1301276.0,-9.143302,0.18664683,3.4768956,9.783844413912785
1301276.9065031828,-9.140909,0.19621846,3.512789,9.79461104836975
1301278.062717014,-9.183981,0.21296883,3.4768956,9.822406311297243
1301279.218930845,-9.183981,0.21775463,3.5630403,9.853333459630376
1301280.3751446758,-9.205518,0.2656128,3.618077,9.894573916332973
1301281.531358507,-9.207911,0.2368979,3.6348274,9.9022076238956
1301282.687572338,-9.212696,0.2632199,3.6420062,9.909957692392558
1301283.843786169,-9.207911,0.22971918,3.6085055,9.892406574191696
1301285.0,-9.205518,0.22254045,3.6228628,9.895262541632437
1301285.9065031828,-9.236626,0.27997026,3.6061125,9.91956100707167
1301287.062717014,-9.217482,0.27518442,3.5989337,9.898991093153404
1301288.218930845,-9.19116,0.2584341,3.6132913,9.879275497135328
1301289.3751446758,-9.143302,0.2632199,3.6802926,9.859706374967502
1301290.531358507,-9.145695,0.28475606,3.618077,9.839476826775941
1301291.687572338,-9.167231,0.28954187,3.6635423,9.876411336398123
1301292.843786169,-9.126552,0.27518442,3.6755068,9.842714468608799
1301294.0,-9.140909,0.2919348,3.6802926,9.858295841338238
1301294.9065031828,-9.162445,0.33979294,3.6372204,9.86383443992624
1301296.062717014,-9.231839,0.45465255,3.541504,9.898273124396928
1301297.218930845,-9.26534,0.45943835,3.5223608,9.922934773464318
1301298.3751446758,-9.241411,0.4091873,3.5989337,9.925897203497424
1301299.531358507,-9.083479,0.2680057,3.723365,9.820634639466968
1301300.687572338,-8.994942,0.16511066,3.8454032,9.783832014296845
1301301.843786169,-8.992549,0.08614469,3.8573678,9.785328035865382
1301303.0,-8.990156,0.021536173,3.8214743,9.768676191615935
1301304.9065031828,-8.990156,0.045465253,3.8119025,9.765017801472387
1301306.062717014,-9.011692,0.040679436,3.776009,9.770900239356571
1301307.218930845,-9.054764,0.08375178,3.7568657,9.80356085023119
1301308.3751446758,-9.069121,0.09571633,3.7066147,9.797811483322477
1301309.531358507,-9.093051,0.13878867,3.6874714,9.813270816060227
1301310.687572338,-9.083479,0.13400285,3.7664373,9.834307166347838
1301311.843786169,-9.0978365,0.16511066,3.776009,9.851707186008873
1301313.0,-9.105016,0.16989647,3.8071167,9.870375815448638
1301313.9065031828,-9.0978365,0.19143265,3.8119025,9.865995951231913
1301315.062717014,-9.114587,0.16032484,3.8477962,9.894793369829634
1301316.218930845,-9.0978365,0.19382556,3.852582,9.881831075016692
1301317.3751446758,-9.107409,0.13639577,3.8717253,9.897159152909232
1301318.531358507,-9.102622,0.17707519,3.8621538,9.88965696435685
1301319.687572338,-9.119372,0.17707519,3.8645465,9.906009335143986
1301320.843786169,-9.0475855,0.17228939,3.9219763,9.862574973680987
1301322.0,-9.021263,0.12921704,3.9171906,9.835866273761743
1301323.9065031828,-9.0428,0.16511066,3.9387267,9.864738282759381
1301325.062717014,-9.00212,0.15553902,3.9387267,9.827305067943879
1301326.218930845,-9.0475855,0.12921704,3.9530842,9.87432909698306
1301327.3751446758,-9.078693,0.07657306,3.9698346,9.908991713243276
1301328.531358507,-9.052371,0.09093051,3.988978,9.892706129455876
1301329.687572338,-9.076301,0.09332342,4.010514,9.923314549459645
1301330.843786169,-9.095444,0.052643977,3.9674416,9.923228597329649
1301332.0,-9.083479,0.03828653,3.9985495,9.924689149075185
1301332.9065031828,-9.143302,0.026321989,4.010514,9.984231911093858
1301334.062717014,-9.140909,0.052643977,4.065551,10.004383722558646
1301335.218930845,-9.140909,0.011964541,4.0224786,9.986826051553132
1301336.3751446758,-9.19116,0.009571632,4.063158,10.049217218007735
1301337.531358507,-9.239018,0.019143265,4.0464077,10.086289473514933
1301338.687572338,-9.258162,0.016750356,4.0153,10.091406159830756
1301339.843786169,-9.317985,0.15553902,3.9482985,10.121170776746622
1301341.0,-9.404129,0.21296883,3.8645465,10.169450212369142
1301341.9065031828,-9.380199,0.22014755,3.876511,10.152040965071654
1301343.062717014,-9.262947,0.14118157,4.020086,10.098673715291167
1301344.218930845,-9.217482,0.0071787243,4.113409,10.093669281073538
1301345.3751446758,-9.138516,-0.08614469,4.23784,10.073687679071215
1301346.531358507,-9.016478,-0.2392908,4.2617693,9.97581140448591
1301347.687572338,-9.023657,-0.22254045,4.23784,9.971719900354964
1301348.843786169,-9.052371,-0.21296883,4.158874,9.964286697605031
1301350.0,-9.078693,-0.16989647,4.058372,9.945949662508426
1301350.9065031828,-9.152873,-0.12921704,4.036836,10.004390340668008
1301352.062717014,-9.124159,-0.12443122,3.9985495,9.962638139054432
1301353.218930845,-9.1480875,-0.11485959,3.9985495,9.984442685349116
1301354.3751446758,-9.143302,-0.057429794,4.0488005,9.999802754716871
1301355.531358507,-9.15048,-0.035893623,4.1038375,10.028661665894322
1301356.687572338,-9.160052,-0.009571632,4.08948,10.031475012641119
1301357.843786169,-9.203125,-0.026321989,4.1469097,10.09430842963915
1301359.0,-9.200731,-0.040679436,4.1516957,10.094141020229149
1301360.9065031828,-9.193553,-0.021536173,4.1971607,10.106336552489283
1301362.062717014,-9.200731,-0.055036888,4.192375,10.111008264956899
1301363.218930845,-9.162445,-0.069394335,4.1995535,10.079259077487658
1301364.3751446758,-9.176803,-0.09810923,4.192375,10.089566237576578
1301365.531358507,-9.215089,-0.088537596,4.2067323,10.13026657239037
1301366.687572338,-9.179195,-0.07418015,4.2115183,10.099505430164088
1301367.843786169,-9.1983385,-0.13160995,4.245019,10.131482549453573
1301369.0,-9.227054,-0.09571633,4.2330546,10.152164221550292
1301369.9065031828,-9.239018,-0.11246668,4.22109,10.158233268956478
1301371.062717014,-9.277305,-0.047858164,4.182803,10.176763699904575
1301372.218930845,-9.377807,0.15075321,4.084694,10.229893241535335
1301373.3751446758,-9.497452,0.31825677,3.9219763,10.28031030473869
1301374.531358507,-9.394557,0.19861138,4.0775156,10.243206586550809
1301375.687572338,-9.172017,-0.052643977,4.3168063,10.137232554712508
1301376.843786169,-9.061943,-0.2057901,4.398165,10.074969770065417
1301378.0,-9.00212,-0.27279153,4.4220943,10.033319376524014
1301378.9065031828,-8.980584,-0.31107804,4.343128,9.980501958940254
1301380.062717014,-8.961441,-0.3254355,4.3048415,9.94710980140782
1301381.218930845,-8.918368,-0.36372203,4.2019467,9.865390897890068
1301382.3751446758,-8.92794,-0.30629224,4.137338,9.84476984525937
1301383.531358507,-8.930333,-0.27039862,4.0918727,9.826870564813204
1301384.687572338,-8.930333,-0.21536173,4.0559793,9.810616507012496
1301385.843786169,-8.908797,-0.20339718,4.120588,9.817702372031093
1301387.0,-8.923154,-0.12921704,4.1062303,9.82346688434284
1301387.9065031828,-8.89444,-0.09571633,4.144517,9.813116003223323
1301389.062717014,-8.896832,-0.05025107,4.139731,9.812926044693354
1301390.218930845,-8.906404,-0.009571632,4.1469097,9.824509345881312
1301391.3751446758,-8.951869,-0.021536173,4.168446,9.874834907725015
1301392.531358507,-8.865725,-0.014357449,4.1804104,9.801893542800542
1301393.687572338,-8.868117,-0.0071787243,4.137338,9.78576089969582
1301394.843786169,-8.851367,0.028714897,4.1851964,9.790985201733873
1301396.0,-8.863332,0.009571632,4.1493025,9.786493600614543
1301397.9065031828,-8.846581,0.055036888,4.132552,9.764374556586086
1301399.062717014,-8.848974,0.1196454,4.0918727,9.74997836240791
1301400.218930845,-8.839402,0.1459674,4.0727296,9.733625254455964
1301401.3751446758,-8.815474,0.105287954,4.108623,9.72648191043722
1301402.531358507,-8.791544,0.0598227,4.1971607,9.742226778360058
1301403.687572338,-8.717364,0.08375178,4.1469097,9.653823570435875
1301404.843786169,-8.633613,-0.031107806,4.2474117,9.621888966240466
1301406.0,-8.485252,-0.12682413,4.371843,9.546129953028254
1301406.9065031828,-8.49961,-0.16989647,4.321592,9.536686656123418
1301408.062717014,-8.549861,-0.047858164,4.192375,9.522521812199091
1301409.218930845,-8.552254,-0.08135887,4.144517,9.503930182273683
1301410.3751446758,-8.533111,-0.069394335,4.144517,9.486612676574294
1301411.531358507,-8.487645,-0.0598227,4.240233,9.48805945890672
1301412.687572338,-8.466109,-0.110073775,4.307235,9.499441624698198
1301413.843786169,-8.418251,-0.107680865,4.2904844,9.44916935261145
1301415.0,-8.432608,-0.047858164,4.2856984,9.459301182502227
1301415.9065031828,-8.456537,-0.019143265,4.2904844,9.482702193130777
1301417.062717014,-8.435001,0.033500712,4.213911,9.429072599340111
1301418.218930845,-8.420644,0.035893623,4.242626,9.429125574664072
1301419.3751446758,-8.435001,0.088537596,4.218697,9.431568541537269
1301420.531358507,-8.413465,0.107680865,4.2593765,9.430815269300126
1301421.687572338,-8.439787,0.07418015,4.2737336,9.46046014651465
1301422.843786169,-8.411072,0.14357449,4.2545905,9.426997727063108
1301424.0,-8.406286,0.17228939,4.2569833,9.424289615890498
1301424.9065031828,-8.439787,0.16032484,4.29527,9.47127515346218
1301426.062717014,-8.418251,0.14118157,4.276127,9.443100351835602
1301427.218930845,-8.432608,0.12921704,4.3287706,9.479653455296493
1301428.3751446758,-8.473288,0.14357449,4.292877,9.499790318857135
1301429.531358507,-8.451752,0.14118157,4.3096275,9.48814698947945
1301430.687572338,-8.446965,0.14357449,4.300056,9.479573458154105
1301431.843786169,-8.427822,0.16511066,4.2856984,9.456355321660254
1301433.0,-8.463716,0.15075321,4.347914,9.516384355960897
1301433.9065031828,-8.473288,0.17707519,4.3168063,9.511192448141149
1301435.062717014,-8.492431,0.15075321,4.3670573,9.550670148296902
1301436.218930845,-8.497216,0.16989647,4.3526998,9.548693110059329
1301437.3751446758,-8.485252,0.1459674,4.3622713,9.542023835653023
1301438.531358507,-8.528324,0.12682413,4.3526998,9.575718780219388
1301439.687572338,-8.523539,0.07418015,4.3862004,9.58618661033339
1301440.843786169,-8.547467,0.055036888,4.3838077,9.606247504916215
1301442.0,-8.540289,0.067001425,4.347914,9.58359961318653
1301443.9065031828,-8.492431,0.031107806,4.3598785,9.546250181098198
1301445.062717014,-8.51636,0.057429794,4.2904844,9.53624361147943
1301446.218930845,-8.523539,0.06460852,4.338342,9.56431401901577
1301447.3751446758,-8.530717,0.023929082,4.343128,9.57269376713986
1301448.531358507,-8.51636,0.043072347,4.331164,9.554539469360734
1301449.687572338,-8.48286,0.031107806,4.319199,9.519210128828712
1301450.843786169,-8.420644,0.0,4.29527,9.452861458184817
1301452.0,-8.446965,0.023929082,4.276127,9.467684639462774
1301452.9065031828,-8.466109,0.016750356,4.3287706,9.508603319191073
1301454.062717014,-8.468502,0.06221561,4.300056,9.497888107851539
1301455.218930845,-8.47568,0.071787246,4.343128,9.523920710268028
1301456.3751446758,-8.485252,0.043072347,4.300056,9.512719817892044
1301457.531358507,-8.494823,0.026321989,4.29527,9.519036454459764
1301458.687572338,-8.506788,0.031107806,4.314413,9.538373514761682
1301459.843786169,-8.485252,0.047858164,4.276127,9.501950011839382
1301461.0,-8.533111,0.047858164,4.2976627,9.554380064931149
1301461.9065031828,-8.540289,0.05025107,4.2976627,9.560803630267094
1301463.062717014,-8.566611,0.055036888,4.3168063,9.592948958275626
1301464.218930845,-8.5546465,0.09571633,4.3287706,9.58798170957868
1301465.3751446758,-8.638398,0.06221561,4.2785196,9.64009962376509
1301466.531358507,-8.724543,0.03828653,4.29527,9.724631653185043
1301467.687572338,-8.691042,0.031107806,4.314413,9.703058191927282
1301468.843786169,-8.703007,0.016750356,4.268948,9.693633397399507
1301470.0,-8.748472,0.035893623,4.321592,9.75772555985359
1301470.9065031828,-8.777187,0.040679436,4.2833056,9.766645960229829
1301472.062717014,-8.832224,0.09810923,4.245019,9.799897576890698
1301473.218930845,-8.767615,0.07896597,4.2904844,9.761432517785819
1301474.3751446758,-8.815474,0.035893623,4.2904844,9.80418923641784
1301475.531358507,-8.791544,0.047858164,4.264162,9.771213531084122
1301476.687572338,-8.808294,0.0598227,4.2521977,9.781145496605015
1301477.843786169,-8.793938,0.043072347,4.2856984,9.782760937009687
1301479.0,-8.803509,0.023929082,4.2617693,9.780849701353603
1301480.9065031828,-8.834617,-0.019143265,4.268948,9.811969273697704
1301482.062717014,-8.87051,-0.043072347,4.276127,9.84749028977968
1301483.218930845,-8.837009,-0.07418015,4.3048415,9.830050411918409
1301484.3751446758,-8.877689,-0.07657306,4.292877,9.86144098757214
1301485.531358507,-8.908797,-0.08375178,4.22109,9.858563746102277
1301486.687572338,-8.88726,-0.052643977,4.2521977,9.852276233226496
1301487.843786169,-8.961441,-0.047858164,4.216304,9.903884824691696
1301489.0,-8.992549,-0.004785816,4.170839,9.912711959164191
1301489.9065031828,-8.963834,-0.031107806,4.2067323,9.9019131645866
1301491.062717014,-8.925548,0.004785816,4.2234826,9.874372652317792
1301492.218930845,-8.982977,0.002392908,4.213911,9.922244072006025
1301493.3751446758,-8.932726,0.023929082,4.23784,9.887034654416933
1301494.531358507,-8.91119,0.045465253,4.23784,9.867657380094343
1301495.687572338,-8.892047,0.033500712,4.2282686,9.846211327290282
1301496.843786169,-8.944691,-0.002392908,4.194768,9.879452484086034
1301498.0,-8.892047,-0.019143265,4.182803,9.826734312660175
1301498.9065031828,-8.87051,-0.004785816,4.182803,9.807232611748523
1301500.062717014,-8.856153,0.009571632,4.1780176,9.792209589334673
1301501.218930845,-8.856153,-0.026321989,4.1995535,9.801448281038684
1301502.3751446758,-8.877689,-0.021536173,4.1469097,9.798504265826626
1301503.531358507,-8.841795,0.023929082,4.1851964,9.782319782626374
1301504.687572338,-8.858545,0.028714897,4.1540885,9.784226864099532
1301505.843786169,-8.844189,0.028714897,4.1062303,9.750981021911016
1301507.0,-8.786758,0.019143265,4.1564813,9.72027877236083
1301507.9065031828,-8.789151,0.067001425,4.1540885,9.721631332116297
1301509.062717014,-8.822652,0.05025107,4.166053,9.756931437800983
1301510.218930845,-8.79633,0.023929082,4.192375,9.74433179907634
1301511.3751446758,-8.825045,0.06221561,4.189982,9.769403215881544
1301512.531358507,-8.87051,0.07418015,4.182803,9.807511982738692
1301513.687572338,-8.860939,0.09332342,4.108623,9.767585790694161
1301514.843786169,-8.923154,0.16032484,4.08948,9.816935776118585
1301516.0,-8.944691,0.16032484,4.0607653,9.824612763945769
1301517.9065031828,-8.937511,0.17946811,4.036836,9.808534883891884
1301519.062717014,-8.961441,0.17228939,4.0488005,9.83513568382195
1301520.218930845,-8.932726,0.15314612,4.0607653,9.813605980822297
1301521.3751446758,-8.882475,0.105287954,4.058372,9.766259824992703
1301522.531358507,-8.896832,0.07896597,4.1062303,9.799029673252353
1301523.687572338,-8.882475,0.07657306,4.08948,9.778960692708747
1301524.843786169,-8.827438,0.07418015,4.0679436,9.71994493149416
1301526.0,-8.724543,0.021536173,4.113409,9.64563362184556
1301526.9065031828,-8.686256,0.009571632,4.118195,9.613046601972766
1301528.062717014,-8.638398,-0.011964541,4.115802,9.568797691447413
1301529.218930845,-8.600112,-0.004785816,4.070337,9.514704021153142
1301530.3751446758,-8.557039,-0.028714897,4.0799084,9.47994691679343
1301531.531358507,-8.523539,-0.035893623,4.051193,9.437381530908986
1301532.687572338,-8.535503,-0.06460852,4.0799084,9.460689101553656
1301533.843786169,-8.537896,-0.08614469,4.03205,9.442484642133723
1301535.0,-8.559432,-0.08135887,4.0153,9.454793996611013
1301535.9065031828,-8.64797,-0.13639577,4.03205,9.542715343625938
1301537.062717014,-8.659934,-0.088537596,3.9937637,9.536899091512877
1301538.218930845,-8.717364,-0.105287954,4.012907,9.597236229894651
1301539.3751446758,-8.7389,-0.07896597,4.0224786,9.620547953306817
1301540.531358507,-8.810688,-0.13160995,4.03205,9.690354555679736
1301541.687572338,-8.832224,-0.088537596,4.051193,9.717416550469084
1301542.843786169,-8.889653,-0.11246668,4.0176926,9.756045973785382
1301544.0,-8.880082,-0.11246668,4.0248713,9.750286870774517
1301544.9065031828,-8.906404,-0.08375178,4.0440145,9.781876090407168
1301546.062717014,-8.899225,-0.12203831,4.0559793,9.78069869854711
1301547.218930845,-8.88726,-0.11485959,4.0607653,9.771714171766336
1301548.3751446758,-8.868117,-0.07896597,4.0296574,9.741040679079509
1301549.531358507,-8.872903,-0.067001425,4.0224786,9.742342168381226
1301550.687572338,-8.839402,-0.06460852,4.0224786,9.71182454876109
1301551.843786169,-8.860939,-0.052643977,4.020086,9.730370126435652
1301553.0,-8.844189,-0.071787246,4.020086,9.715241835580073
1301554.9065031828,-8.844189,-0.03828653,4.036836,9.721995156190752
1301556.062717014,-8.856153,-0.057429794,4.027264,9.729008144016731
1301557.218930845,-8.868117,-0.08614469,4.0775156,9.760996542441124
1301558.3751446758,-8.858545,-0.06221561,4.0679436,9.748120610247579
1301559.531358507,-8.848974,-0.12203831,4.0296574,9.724061546656234
1301560.687572338,-8.89444,-0.16750357,4.039229,9.77008143640593
1301561.843786169,-8.868117,-0.1459674,4.03205,9.742804155378048
1301563.0,-8.882475,-0.208183,4.0033355,9.745173031438396
1301563.9065031828,-8.920761,-0.18425392,4.008121,9.781562261561156
1301565.062717014,-8.937511,-0.20100428,3.9746203,9.78351225914658
1301566.218930845,-8.882475,-0.19382556,3.9961565,9.7419298522329
1301567.3751446758,-8.868117,-0.20339718,3.9961565,9.729035733874822
1301568.531358507,-8.832224,-0.208183,3.9770133,9.688557980217793
1301569.687572338,-8.815474,-0.21296883,3.9746203,9.672411493335034
1301570.843786169,-8.801116,-0.25364825,3.9602628,9.654411516257628
1301572.0,-8.793938,-0.21775463,3.979406,9.65486585818604
1301572.9065031828,-8.791544,-0.2368979,3.936334,9.635460128012383
1301574.062717014,-8.825045,-0.24646953,3.9411197,9.668225844019755
1301575.218930845,-8.813081,-0.2632199,3.9147975,9.6470368971163
1301576.3751446758,-8.79633,-0.2680057,3.9411197,9.642596798262414
1301577.531358507,-8.774794,-0.28236315,3.905226,9.608721496743984
1301578.687572338,-8.786758,-0.22971918,3.907619,9.619218954852046
1301579.843786169,-8.810688,-0.27997026,3.8980472,9.6385361104919
1301581.0,-8.820259,-0.2392908,3.8860826,9.641362294202434
1301581.9065031828,-8.777187,-0.28714898,3.8621538,9.59362799698521
1301583.062717014,-8.770008,-0.2991135,3.8214743,9.571111483600363
1301584.218930845,-8.789151,-0.30868515,3.7903664,9.576603743962705
1301585.3751446758,-8.7556505,-0.32064968,3.749687,9.530182815319094
1301586.531358507,-8.770008,-0.34218585,3.7281508,9.535682454001122
1301587.687572338,-8.770008,-0.34457877,3.7090075,9.528300555915257
1301588.843786169,-8.736507,-0.33022133,3.699436,9.493230609541303
1301590.0,-8.832224,-0.3804724,3.7592585,9.606506363041666
1301590.9065031828,-8.827438,-0.36850783,3.7903664,9.613861716857814
1301592.062717014,-8.832224,-0.4139731,3.7616515,9.60882805138857
1301593.218930845,-8.839402,-0.37807947,3.6898644,9.586087371478879
1301594.3751446758,-8.858545,-0.37329367,3.6635423,9.593472252786077
1301595.531358507,-8.789151,-0.416366,3.668328,9.533056501581274
1301596.687572338,-8.793938,-0.416366,3.668328,9.537470131506783
1301597.843786169,-8.798723,-0.43550926,3.6611493,9.539979504336749
1301599.0,-8.815474,-0.46661708,3.6420062,9.549582320963685
1301600.9065031828,-8.827438,-0.4402951,3.6755068,9.572192625296164
1301602.062717014,-8.860939,-0.45943835,3.6563635,9.596682635333107
1301603.218930845,-8.858545,-0.46661708,3.6539707,9.593907071304745
1301604.3751446758,-8.908797,-0.43311638,3.6539707,9.638763181149944
1301605.531358507,-8.959048,-0.45943835,3.699436,9.703682361961912
1301606.687572338,-8.978191,-0.46183127,3.773616,9.74994253674794
1301607.843786169,-9.0428,-0.51208234,3.7951522,9.820266818376409
1301609.0,-9.095444,-0.51926106,3.7784019,9.862710303131282
1301609.9065031828,-9.073908,-0.5049036,3.7425082,9.82838245413884
1301611.062717014,-9.126552,-0.5360114,3.7592585,9.885002989349887
1301612.218930845,-9.140909,-0.54797596,3.7855806,9.908941188548617
1301613.3751446758,-9.164838,-0.5072965,3.7975452,9.933426138608938
1301614.531358507,-9.167231,-0.5695121,3.8621538,9.963869740932076
1301615.687572338,-9.179195,-0.54797596,3.8406174,9.965352001507306
1301616.843786169,-9.2485895,-0.5336185,3.8430104,10.029450901099255
1301618.0,-9.349092,-0.5144752,3.8669395,10.130322159365877
1301618.9065031828,-9.317985,-0.5623334,3.9195836,10.124435732936899
1301620.062717014,-9.310805,-0.60540575,4.03205,10.164400281013044
1301621.218930845,-9.442415,-0.64369226,4.1349454,10.328180586085338
1301622.3751446758,-9.511809,-0.6006199,4.2330546,10.428518876779107
1301623.531358507,-9.60274,-0.57908374,4.175625,10.487316035390437
1301624.687572338,-9.564454,-0.54079723,3.988978,10.377050999516946
1301625.843786169,-9.432844,-0.5144752,3.9195836,10.227725370635447
1301627.0,-9.358664,-0.46422416,3.905226,10.151398231115735
1301627.9065031828,-9.286877,-0.43550926,3.8812969,10.074731676557166
1301629.062717014,-9.234232,-0.41875893,3.9698346,10.06011860877574
1301630.218930845,-9.179195,-0.40200856,3.9985495,10.020360763679545
1301631.3751446758,-9.124159,-0.42354473,4.03205,9.984342482011112
1301632.531358507,-9.131337,-0.40200856,4.0248713,9.987117465587653
1301633.687572338,-9.193553,-0.4737958,4.0057282,10.03950983047389
1301634.843786169,-9.203125,-0.49054617,4.010514,10.05098840187982
1301636.0,-9.215089,-0.51926106,3.9985495,10.058622939065943
1301637.9065031828,-9.239018,-0.54558307,4.008121,10.085739855917145
1301639.062717014,-9.250982,-0.6197632,4.010514,10.10193035674837
1301640.218930845,-9.294055,-0.67001426,4.1062303,10.182804364626989
1301641.3751446758,-9.361056,-0.677193,4.1469097,10.260839139872484
1301642.531358507,-9.416093,-0.6532639,4.0966587,10.289420470171189
1301643.687572338,-9.387379,-0.6556568,4.0176926,10.232039100644698
1301644.843786169,-9.392164,-0.6748001,3.9722273,10.219916315739638
1301646.0,-9.375414,-0.69872916,3.979406,10.208931492730583
1301646.9065031828,-9.346699,-0.650871,3.95787,10.170995535941502
1301648.062717014,-9.294055,-0.70830077,3.9459054,10.121823835137457
1301649.218930845,-9.246197,-0.7226582,3.9817991,10.093023229419273
1301650.3751446758,-9.152873,-0.71787244,3.9626558,9.999653293165428
1301651.531358507,-9.083479,-0.7418015,3.988978,9.948457452958587
1301652.687572338,-9.014085,-0.7489802,3.955477,9.87220836615324
1301653.843786169,-9.004513,-0.7513731,3.984192,9.87520135467812
1301655.0,-8.982977,-0.7657306,3.9650488,9.848950762425751
1301656.9065031828,-8.913583,-0.77530223,3.9124048,9.765242790878013
1301658.062717014,-8.896832,-0.8040171,3.9387267,9.762870026309338
1301659.218930845,-8.889653,-0.832732,3.926762,9.753913719573132
1301660.3751446758,-8.863332,-0.8279462,3.8406174,9.695075609065729
1301661.531358507,-8.858545,-0.84708947,3.7568657,9.659473069223102
1301662.687572338,-8.841795,-0.7896597,3.7425082,9.633652935978974
1301663.843786169,-8.827438,-0.80880296,3.7090075,9.609087391995404
1301665.0,-8.77958,-0.81358874,3.7401154,9.577651842678973
1301665.9065031828,-8.777187,-0.7705164,3.720972,9.56443097002754
1301667.062717014,-8.729329,-0.80641,3.7066147,9.51790283689622
1301668.218930845,-8.710185,-0.7394086,3.668328,9.48001466916391
1301669.3751446758,-8.743686,-0.75855184,3.7042217,9.526211427598817
1301670.531358507,-8.736507,-0.73701566,3.699436,9.516069218024333
1301671.687572338,-8.717364,-0.70830077,3.723365,9.505659998785124
1301672.843786169,-8.736507,-0.6819788,3.7425082,9.52879936150225
1301674.0,-8.688649,-0.69155043,3.749687,9.488467528552922
1301674.9065031828,-8.703007,-0.650871,3.7401154,9.494968515272031
1301676.062717014,-8.681471,-0.68915755,3.771223,9.490258150771876
1301677.218930845,-8.736507,-0.6939433,3.776009,9.542869371040604
1301678.3751446758,-8.760436,-0.6676214,3.823867,9.581905660019983
1301679.531358507,-8.798723,-0.6652284,3.8454032,9.62534056672624
1301680.687572338,-8.856153,-0.6556568,3.8286529,9.670569519292732
1301681.843786169,-8.858545,-0.66044265,3.8812969,9.694042997476007
1301683.0,-8.848974,-0.6819788,3.8382246,9.669612402592495
1301683.9065031828,-8.906404,-0.7489802,3.8358316,9.726181553660542
1301685.062717014,-8.930333,-0.7202653,3.8286529,9.743111034056396
1301686.218930845,-8.942298,-0.7513731,3.8310459,9.757364795072203
1301687.3751446758,-8.978191,-0.7513731,3.8717253,9.806259835765353
1301688.531358507,-8.92794,-0.8040171,3.804724,9.738094313410011
1301689.687572338,-8.963834,-0.78487384,3.7616515,9.752762118073248
1301690.843786169,-8.961441,-0.78008807,3.7640445,9.751102152650109
1301692.0,-8.982977,-0.72505116,3.8334389,9.793611630403749
1301693.9065031828,-8.98537,-0.7418015,3.8645465,9.80927434385258
1301695.062717014,-8.951869,-0.7394086,3.8980472,9.7917034087202
1301696.218930845,-8.975799,-0.75855184,3.8860826,9.810301043107248
1301697.3751446758,-8.939904,-0.7705164,3.9219763,9.792725726254497
1301698.531358507,-8.980584,-0.8231604,3.9100118,9.829378123834864
1301699.687572338,-8.9973345,-0.8638398,3.9722273,9.87303585670687
1301700.843786169,-8.987762,-0.8829831,3.9698346,9.865044940337919
1301702.0,-8.956655,-0.92366254,3.9674416,9.83948241150086
1301702.9065031828,-8.947083,-0.93323416,3.9147975,9.810548387948868
1301704.062717014,-8.906404,-0.93562704,3.9243693,9.777530596831577
1301705.218930845,-8.882475,-0.8997334,3.902833,9.743715294618863
1301706.3751446758,-8.817866,-0.93562704,3.854975,9.669073947517424
1301707.531358507,-8.726935,-0.9451987,3.8956544,9.603588822984147
1301708.687572338,-8.784366,-0.86862564,3.8358316,9.624614308531017
1301709.843786169,-8.753258,-0.9021264,3.7975452,9.584086143299423
1301711.0,-8.650363,-0.90691215,3.8166883,9.49833560467009
1301711.9065031828,-8.609683,-0.8877689,3.7831876,9.446019447211084
1301713.062717014,-8.566611,-0.8518753,3.802331,9.411176153150683
1301714.218930845,-8.5642185,-0.84708947,3.7927594,9.404702172435632
1301715.3751446758,-8.533111,-0.8566611,3.804724,9.382098714826562
1301716.531358507,-8.521146,-0.8877689,3.7975452,9.371201220716918
1301717.687572338,-8.545074,-0.86623275,3.7879734,9.387086412820333
1301718.843786169,-8.545074,-0.8829831,3.8358316,9.408057869928317
1301720.0,-8.533111,-0.8829831,3.7544727,9.364278282294471
1301720.9065031828,-8.511574,-0.885376,3.7784019,9.354523159240967
1301722.062717014,-8.490038,-0.89734054,3.6898644,9.300594850683416
1301723.218930845,-8.5043955,-0.8710185,3.6515777,9.296097877437596
1301724.3751446758,-8.533111,-0.8734115,3.6228628,9.311389040002414
1301725.531358507,-8.571397,-0.9188767,3.668328,9.368554383521285
1301726.687572338,-8.638398,-0.885376,3.6300416,9.411854901426741
1301727.843786169,-8.650363,-0.885376,3.6300416,9.422837826837284
1301729.0,-8.698221,-0.9140909,3.6132913,9.463111790365762
1301729.9065031828,-8.712579,-0.90451926,3.5989337,9.469926699819151
1301731.062717014,-8.724543,-0.8925547,3.670721,9.507286527247514
1301732.218930845,-8.731722,-0.9093051,3.720972,9.534958703369092
1301733.3751446758,-8.746079,-0.9140909,3.723365,9.549497733961132
1301734.531358507,-8.724543,-0.90451926,3.7544727,9.541062357285233
1301735.687572338,-8.736507,-0.93562704,3.749687,9.553120177041487
1301736.843786169,-8.765223,-0.9404129,3.7281508,9.571448116651736
1301738.0,-8.686256,-0.93323416,3.7425082,9.504122101593294
1301739.9065031828,-8.691042,-1.0074143,3.7449012,9.51700476070964
1301741.062717014,-8.7556505,-1.0480938,3.7951522,9.600161275359573
1301742.218930845,-8.834617,-1.093559,3.9219763,9.727704092998085
1301743.3751446758,-8.863332,-1.1127023,3.8286529,9.71881389776179
1301744.531358507,-8.793938,-1.067237,3.6731138,9.589791726088917
1301745.687572338,-8.726935,-1.0720228,3.6108983,9.505115144536004
1301746.843786169,-8.664721,-1.0983448,3.6898644,9.481500440221232
1301748.0,-8.698221,-1.1342385,3.8166883,9.566224705654793
1301748.9065031828,-8.688649,-1.119881,3.823867,9.558698328383997
1301750.062717014,-8.683864,-1.1031306,3.8119025,9.547617072372487
1301751.218930845,-8.714972,-1.0959519,3.773616,9.559917637895925
1301752.3751446758,-8.770008,-1.0768087,3.7401154,9.594843432895447
1301753.531358507,-8.837009,-1.0361292,3.7353296,9.649817563343351
1301754.687572338,-8.837009,-1.0528796,3.75208,9.658125482958749
1301755.843786169,-8.856153,-0.99784267,3.802331,9.689419847805272
1301757.0,-8.904011,-0.99066395,3.8382246,9.746527331824181
1301757.9065031828,-8.982977,-0.9691278,3.852582,9.82219285811401
1301759.062717014,-8.9973345,-0.98109233,3.8310459,9.828096608844557
1301760.218930845,-9.066729,-0.9786994,3.8190813,9.88679974769445
1301761.3751446758,-9.081086,-0.94280577,3.8142955,9.894637730642874
1301762.531358507,-9.076301,-0.96194905,3.7951522,9.884723872651263
1301763.687572338,-9.0978365,-0.9667349,3.7879734,9.902219338447205
1301764.843786169,-9.164838,-0.95237744,3.7616515,9.952451977373073
1301766.0,-9.140909,-0.9404129,3.7879734,9.93928248154136
1301766.9065031828,-9.164838,-0.9499845,3.8454032,9.984180080860646
1301768.062717014,-9.207911,-0.95955616,3.8358316,10.020976852167331
1301769.218930845,-9.234232,-0.96434194,3.8908687,10.06676985173033
1301770.3751446758,-9.258162,-0.97152066,3.823867,10.063765440665826
1301771.531358507,-9.217482,-1.0002356,3.7927594,10.017358411383698
1301772.687572338,-9.215089,-0.99066395,3.776009,10.00787311609373
1301773.843786169,-9.258162,-1.0050215,3.8071167,10.06070421994033
1301775.0,-9.236626,-1.0217718,3.8142955,10.045303760288759
1301776.9065031828,-9.301233,-1.0289505,3.8908687,10.134620549994901
1301778.062717014,-9.258162,-1.0552725,3.9147975,10.107066989661567
1301779.218930845,-9.296448,-1.0576653,3.9195836,10.144246492515698
1301780.3751446758,-9.327556,-1.0959519,3.9674416,10.195342287027943
1301781.531358507,-9.356271,-1.1270597,4.0224786,10.246482551600966
1301782.687572338,-9.32277,-1.1127023,4.0464077,10.223774359596586
1301783.843786169,-9.325163,-1.170132,4.0057282,10.216346327639261
1301785.0,-9.332341,-1.1509888,3.986585,10.21323767079918
1301785.9065031828,-9.313198,-1.1509888,3.9698346,10.189210909402485
1301787.062717014,-9.325163,-1.1103094,3.933941,10.181716148654822
1301788.218930845,-9.291662,-1.1366314,3.8836899,10.13459229081624
1301789.3751446758,-9.250982,-1.1294526,3.876511,10.09374403643622
1301790.531358507,-9.246197,-1.1677392,3.8501892,10.083636778356423
1301791.687572338,-9.227054,-1.1677392,3.8501892,10.066086490485231
1301792.843786169,-9.234232,-1.1988469,3.8310459,10.06902116431237
1301794.0,-9.200731,-1.1031306,3.8166883,10.021849012750803
1301794.9065031828,-9.15048,-1.0193789,3.799938,9.960418985966866
1301796.062717014,-9.126552,-1.0193789,3.8358316,9.952220295694211
1301797.218930845,-9.107409,-0.98109233,3.802331,9.91792124826704
1301798.3751446758,-9.112194,-0.9188767,3.8166883,9.921870965840858
1301799.531358507,-9.085872,-0.92605543,3.874118,9.920657182754603
1301800.687572338,-9.093051,-0.8901618,3.8573678,9.9174215834186
1301801.843786169,-9.155267,-0.8542682,3.8621538,9.97321011378356
1301803.0,-9.121766,-0.84708947,3.8573678,9.939993051980354
1301803.9065031828,-9.119372,-0.81119585,3.8286529,9.923687188244077
1301805.062717014,-8.987762,-0.81119585,3.9602628,9.855028458648157
1301806.218930845,-9.0475855,-0.83033913,3.9913707,9.923674043187729
1301807.3751446758,-9.069121,-0.8566611,3.8956544,9.907519727819551
1301808.531358507,-9.1480875,-0.89734054,3.8717253,9.97411558741144
1301809.687572338,-9.138516,-0.9164838,3.876511,9.968939500821511
1301810.843786169,-9.140909,-0.9667349,3.9171906,9.99175539682029
1301812.0,-9.164838,-1.0002356,3.9004402,10.010402618053252
1301813.9065031828,-9.162445,-0.9739136,3.9411197,10.021543322663334
1301815.062717014,-9.100229,-0.9140909,3.9913707,9.979016489149735
1301816.218930845,-9.054764,-0.9834852,3.9698346,9.935571497688102
1301817.3751446758,-9.061943,-1.1055236,3.8884757,9.922763558348876
1301818.531358507,-9.246197,-1.1892753,3.7784019,10.058968914353137
1301819.687572338,-9.349092,-1.196454,3.7305436,10.136763731590126
1301820.843786169,-9.404129,-1.2012398,3.7544727,10.196895829652783
1301822.0,-9.425665,-1.1079165,3.8334389,10.235521162267727
1301822.9065031828,-9.387379,-1.0600582,3.9004402,10.220569535539802
1301824.062717014,-9.380199,-1.0600582,3.9506912,10.233270133478626
1301825.218930845,-9.349092,-1.0552725,3.9674416,10.210764619906328
1301826.3751446758,-9.341913,-1.0576653,3.9459054,10.196085710317575
1301827.531358507,-9.389771,-1.0457008,3.986585,10.254469735573197
1301828.687572338,-9.325163,-0.99784267,4.108623,10.238903160337573
1301829.843786169,-9.274912,-1.040915,4.168446,10.221714078366945
1301831.0,-9.289269,-1.1342385,4.082301,10.209906805835413
1301831.9065031828,-9.351485,-1.1007377,3.9435124,10.208485942507835
1301833.062717014,-9.404129,-1.119881,3.7568657,10.188513904914617
1301834.218930845,-9.358664,-1.0624512,3.749687,10.137728888426956
1301835.3751446758,-9.267733,-1.0098072,3.6874714,10.025369363084772
1301836.531358507,-9.222268,-0.9499845,3.7616515,10.005134662837703
1301837.687572338,-9.200731,-0.86862564,3.8286529,10.003326669938597
1301838.843786169,-9.102622,-0.89734054,3.8980472,9.94272192576255
1301840.0,-9.112194,-0.8734115,3.8334389,9.924221931315396
1301840.9065031828,-9.143302,-0.84948236,3.8406174,9.953488521937318
1301842.062717014,-9.212696,-0.8255533,3.8597608,10.022627363759142
1301843.218930845,-9.222268,-0.86623275,3.8621538,10.035776911423001
1301844.3751446758,-9.2485895,-0.93323416,3.8908687,10.077013098013758
1301845.531358507,-9.241411,-0.9404129,3.8071167,10.039033382792702
1301846.687572338,-9.255769,-0.90691215,3.7688303,10.034731249982569
1301847.843786169,-9.219875,-0.95955616,3.7544727,10.001145349151978
1301849.0,-9.231839,-1.0457008,3.75208,10.019902485126373
1301850.9065031828,-9.274912,-0.9667349,3.6802926,10.025124567616942
1301852.062717014,-9.183981,-0.9188767,3.6587565,9.928561855800472
1301853.218930845,-9.004513,-0.90691215,3.8095098,9.819170480813673
1301854.3751446758,-8.961441,-0.8901618,3.749687,9.754996946418244
1301855.531358507,-8.904011,-0.83751786,3.596541,9.639395998641252
1301856.687572338,-8.877689,-0.90691215,3.491253,9.582520500293626
1301857.843786169,-8.85376,-0.94280577,3.4984317,9.566450397985147
1301859.0,-8.9973345,-0.99066395,3.4673238,9.693078845277505
1301859.9065031828,-9.138516,-0.93802,3.4027152,9.796470126273393
1301861.062717014,-9.162445,-0.86862564,3.3213565,9.784493746770073
1301862.218930845,-9.167231,-0.8231604,3.278284,9.770509875955561
1301863.3751446758,-9.145695,-0.7441944,3.2974274,9.750414852522283
1301864.531358507,-9.183981,-0.6867646,3.2926416,9.780523571375138
1301865.687572338,-9.164838,-0.6484781,3.4075012,9.799277720343731
1301866.843786169,-9.136123,-0.6389065,3.4170728,9.775138439294407
1301868.0,-9.15766,-0.63651353,3.4792883,9.816992066004229
1301868.9065031828,-9.160052,-0.6580497,3.441002,9.807144172203145
1301870.062717014,-9.162445,-0.60779864,3.4697168,9.816249397657595
1301871.218930845,-9.160052,-0.67001426,3.436216,9.806276161212438
1301872.3751446758,-9.217482,-0.7441944,3.433823,9.864428017915907
1301873.531358507,-9.26534,-0.6867646,3.4266443,9.902528065607068
1301874.687572338,-9.468738,-0.59583414,3.4577522,10.097923940674063
1301875.843786169,-9.538132,-0.57669085,3.4457877,10.157853476959048
1301877.0,-9.523774,-0.6293348,3.491253,10.163030109351052
1301877.9065031828,-9.2485895,-0.81358874,3.4768956,9.913986957357993
1301879.062717014,-9.119372,-0.8351249,3.4146798,9.77345473256576
1301880.218930845,-9.107409,-0.86862564,3.4242516,9.768567357389157
1301881.3751446758,-9.136123,-0.8710185,3.441002,9.801423950757117
1301882.531358507,-9.145695,-0.86862564,3.462538,9.817709352844705
1301883.687572338,-9.236626,-0.7992313,3.436216,9.887447139349554
1301884.843786169,-9.241411,-0.75615895,3.441002,9.890194557873475
1301886.0,-9.215089,-0.64129937,3.4433947,9.858300929666912
1301887.9065031828,-9.260554,-0.6101916,3.4553592,9.903014762013193
1301889.062717014,-9.272519,-0.4139731,3.5223608,9.927638588217304
1301890.218930845,-9.1480875,-0.5144752,3.6061125,9.846635821524403
1301891.3751446758,-9.011692,-0.5288327,3.6228628,9.727044340141415
1301892.531358507,-8.982977,-0.5647263,3.6396132,9.708737086874633
1301893.687572338,-9.085872,-0.5431901,3.6731138,9.815288608740573
1301894.843786169,-9.188767,-0.5264398,3.6778998,9.911484489326162
1301896.0,-9.212696,-0.5072965,3.615684,9.909807672966425
1301896.9065031828,-9.286877,-0.52165395,3.62047,9.981282997569982
1301898.062717014,-9.26534,-0.5288327,3.6563635,9.974727233579952
1301899.218930845,-9.30602,-0.52165395,3.6826856,10.021791472206852
1301900.3751446758,-9.440022,-0.43311638,3.7137933,10.153514949722249
1301901.531358507,-9.8922825,-0.14357449,3.7042217,10.564048707609025
1301902.687572338,-9.842031,-0.22254045,3.7592585,10.537889870684237
1301903.843786169,-9.128944,-0.5049036,3.852582,9.921438114867874
1301905.0,-8.492431,-0.7489802,3.9770133,9.407390202289363
1301905.9065031828,-8.566611,-0.8231604,3.8693323,9.435896858130256
1301907.062717014,-8.88726,-0.9188767,3.6731138,9.660201327361316
1301908.218930845,-9.014085,-0.9858781,3.6276486,9.766550997172265
1301909.3751446758,-9.212696,-0.98109233,3.6013267,9.940113869998356
1301910.531358507,-9.2988405,-0.99066395,3.5750046,10.011518745739382
1301911.687572338,-9.32277,-0.90691215,3.6037195,10.036101053466822
1301912.843786169,-9.239018,-0.9404129,3.6252558,9.969268260120401
1301914.0,-9.169623,-0.832732,3.6515777,9.905021365201101
1301914.9065031828,-9.15766,-0.78487384,3.6539707,9.890918334349688
1301916.062717014,-9.054764,-0.77290934,3.7329366,9.824507906413166
1301917.218930845,-9.0475855,-0.69872916,3.7472942,9.817802179724248
1301918.3751446758,-9.105016,-0.67001426,3.7401154,9.866037637987022
1301919.531358507,-9.114587,-0.6652284,3.7018287,9.860109569821182
1301920.687572338,-9.114587,-0.57908374,3.6563635,9.837684087356822
1301921.843786169,-9.270126,-0.45465255,3.6611493,9.97727213189998
1301923.0,-9.401736,-0.30389932,3.7185793,10.114980307483597
1301923.9065031828,-9.461558,-0.21296883,3.7401154,10.176192741651109
1301925.062717014,-9.169623,-0.31107804,3.7640445,9.916994832462075
1301926.218930845,-8.92794,-0.42833054,3.7807949,9.704946665024115
1301927.3751446758,-8.741293,-0.54558307,3.7855806,9.541408946126143
1301928.531358507,-8.583362,-0.66044265,3.8310459,9.422696026344573
1301929.687572338,-8.557039,-0.7130866,3.8908687,9.427102852269101
1301930.843786169,-8.63122,-0.7489802,3.8932614,9.498232170099971
1301932.0,-8.683864,-0.74658734,3.8980472,9.547861467374364
1301933.9065031828,-8.7556505,-0.7705164,3.926762,9.626763267342936
1301935.062717014,-8.774794,-0.7489802,3.984192,9.666010913261584
1301936.218930845,-8.839402,-0.7657306,3.984192,9.726004162154382
1301937.3751446758,-8.829831,-0.7394086,3.933941,9.69476829830378
1301938.531358507,-8.834617,-0.73701566,3.929155,9.697005137350358
1301939.687572338,-8.841795,-0.7418015,3.9698346,9.720452409162055
1301940.843786169,-8.882475,-0.677193,3.9817991,9.757647081014705
1301942.0,-8.925548,-0.63412064,3.9937637,9.798860371380728
1301942.9065031828,-9.093051,-0.44747382,4.0033355,9.945376032797688
1301944.062717014,-9.442415,-0.15314612,3.9124048,10.222013797944077
1301945.218930845,-9.241411,-0.25364825,3.9602628,10.057419954974183
1301946.3751446758,-8.770008,-0.54079723,3.9650488,9.639871054657377
1301947.531358507,-8.640791,-0.6269419,3.9770133,9.53273098540148
1301948.687572338,-8.602505,-0.69872916,4.008121,9.516109954424671
1301949.843786169,-8.537896,-0.7394086,4.0248713,9.46794498115265
1301951.0,-8.535503,-0.80641,3.9411197,9.435970169560578
1301951.9065031828,-8.643184,-0.83033913,3.936334,9.533562717485061
1301953.062717014,-8.729329,-0.77530223,3.874118,9.581809255876887
1301954.218930845,-8.822652,-0.7154795,3.8884757,9.668057845168011
1301955.3751446758,-8.85376,-0.6221561,3.929155,9.70641042633126
1301956.531358507,-8.5546465,-0.36372203,4.2665553,9.566491759418794
1301957.687572338,-8.619255,-0.2656128,4.323985,9.64670685751225
1301958.843786169,-8.746079,-0.3230426,4.0153,9.629168628996782
1301960.0,-8.863332,-0.40440148,3.8573678,9.67478583968281
1301960.9065031828,-8.837009,-0.46183127,3.9817991,9.703645720078184
1301962.062717014,-8.863332,-0.45704544,4.187589,9.813431933292746
1301963.218930845,-9.040407,-0.43072346,4.2019467,9.978518802622174
1301964.3751446758,-9.138516,-0.37807947,4.1421237,10.040548168003237
1301965.531358507,-9.332341,-0.21296883,4.118195,10.20281697968054
1301966.687572338,-9.353878,-0.17946811,4.168446,10.242225563631518
1301967.843786169,-8.825045,-0.5527618,4.2474117,9.809560184272337
1301969.0,-8.446965,-0.8183746,4.225876,9.480452661372565
1301970.9065031828,-8.435001,-0.7681235,4.2282686,9.466652572847448
1301972.062717014,-8.485252,-0.7346228,4.2091255,9.500311028410284
1301973.218930845,-8.456537,-0.81358874,4.1110163,9.437976461566828
1301974.3751446758,-8.487645,-0.86623275,4.0918727,9.462235413273275
1301975.531358507,-8.399107,-0.8877689,4.170839,9.419608801918328
1301976.687572338,-8.47568,-0.8829831,4.132552,9.470733691218944
1301977.843786169,-8.621648,-0.9212696,4.0966587,9.589794805733533
1301979.0,-8.726935,-0.98109233,4.0799084,9.683366625642158
1301979.9065031828,-8.846581,-0.9786994,4.084694,9.79308802057642
1301981.062717014,-8.896832,-0.99784267,4.051193,9.82656981624543
1301982.218930845,-8.92794,-1.0385221,3.9985495,9.837430502917854
1301983.3751446758,-8.930333,-1.0720228,4.0248713,9.853916447594454
1301984.531358507,-8.930333,-1.0959519,4.082301,9.8801386383291
1301985.687572338,-8.91119,-1.119881,4.084694,9.866517407064004
1301986.843786169,-9.030835,-1.1485959,3.9985495,9.943020237466685
1301988.0,-9.109801,-1.1390243,4.0153,10.020403420301575
1301989.9065031828,-9.456773,-0.84230363,3.955477,10.285223832088885
1301991.062717014,-9.521381,-0.86623275,3.9770133,10.35488725736357
1301992.218930845,-9.272519,-1.0959519,4.0057282,10.16004810937182
1301993.3751446758,-9.15766,-1.2347406,3.9506912,10.049640888243012
1301994.531358507,-9.052371,-1.2036327,4.0727296,9.999063895828773
1301995.687572338,-9.176803,-1.2921704,4.0559793,10.116045953112
1301996.843786169,-9.222268,-1.2323477,4.0416217,10.144141850517972
1301998.0,-9.227054,-1.2084186,4.0296574,10.140854983339262
1301998.9065031828,-9.358664,-1.14381,4.070337,10.269398058044347
1302000.062717014,-9.363449,-1.2132044,4.0535865,10.275096379341782
1302001.218930845,-9.274912,-1.3208853,4.0033355,10.188004010063029
1302002.3751446758,-9.114587,-1.3591717,3.902833,10.007754459245035
1302003.531358507,-9.064336,-1.251491,3.9411197,9.96297351866927
1302004.687572338,-9.181588,-1.0959519,3.933941,10.048808912519862
1302005.843786169,-9.231839,-0.92366254,3.852582,10.046013730651788
1302007.0,-9.236626,-0.7944455,3.7640445,10.00572008974499
1302007.9065031828,-9.222268,-0.8183746,3.749687,9.988999782146266
1302009.062717014,-9.076301,-0.9571632,3.802331,9.887017865241079
1302010.218930845,-8.896832,-0.99066395,3.8119025,9.729626681818775
1302011.3751446758,-8.918368,-0.9691278,3.7784019,9.734105885703137
1302012.531358507,-8.846581,-0.9547703,3.7807949,9.66788455615752
1302013.687572338,-8.777187,-0.95955616,3.7281508,9.584303211225299
1302014.843786169,-8.85376,-0.8997334,3.7042217,9.639494008060092
1302016.0,-8.760436,-0.9188767,3.802331,9.594128117419524
1302016.9065031828,-8.6551485,-1.0696299,3.8477962,9.532116201387847
1302018.062717014,-8.537896,-1.225169,3.8621538,9.450552320379558
1302019.218930845,-8.619255,-1.0839874,3.8382246,9.49729190445513
1302020.3751446758,-8.679078,-0.885376,3.9722273,9.585868521648171
1302021.531358507,-8.521146,-0.6819788,4.008121,9.441401283051498
1302022.687572338,-8.659934,-0.70830077,3.955477,9.546829063237048
1302023.843786169,-8.746079,-0.6293348,3.8717253,9.58541689043268
1302025.0,-9.128944,-0.34218585,3.8621538,9.91821262556569
1302026.9065031828,-9.131337,-0.5838696,3.9171906,9.953220650327287
1302028.062717014,-8.863332,-0.81358874,4.008121,9.761435075372873
1302029.218930845,-8.856153,-0.9284483,3.9602628,9.745621768273471
1302030.3751446758,-9.05955,-0.9499845,4.070337,9.977252129033788
1302031.531358507,-9.121766,-1.0983448,4.323985,10.154300691759527
1302032.687572338,-9.064336,-1.3160994,4.508239,10.208747407625355
1302033.843786169,-9.114587,-1.4644598,4.508239,10.273488091563937
1302035.0,-9.258162,-1.4405307,4.082301,10.220267793482101
1302035.9065031828,-9.375414,-1.3424214,3.4433947,10.077571629443376
1302037.062717014,-9.5500965,-1.2562767,3.0892444,10.115631728627061
1302038.218930845,-9.5907755,-1.2323477,3.0796728,10.14820378688541
1302039.3751446758,-9.571632,-1.3567789,3.330928,10.225070633892619
1302040.531358507,-9.224661,-1.5482116,3.594148,10.02044058757895
1302041.687572338,-8.671899,-1.7133222,3.6396132,9.559502574549999
1302042.843786169,-8.143066,-1.6032485,3.596541,9.045166488118902
1302044.0,-7.867882,-1.4524952,3.4960387,8.731299792347341
1302044.9065031828,-7.65252,-1.1892753,3.4673238,8.485150112027279
1302046.062717014,-7.6070547,-0.93084127,3.436216,8.39888844296573
1302047.218930845,-7.70995,-0.7441944,3.5726118,8.529988826545472
1302048.3751446758,-7.918133,-0.55754757,3.773616,8.789076584827209
1302049.531358507,-8.128709,-0.4402951,3.8310459,8.99703742737974
1302050.687572338,-8.233996,-0.39722276,3.7807949,9.069227427126526
1302051.843786169,-8.435001,-0.4402951,3.7377224,9.236539957394584
1302053.0,-8.533111,-0.5599405,3.6396132,9.293777539164335
1302053.9065031828,-8.674292,-0.6006199,3.596541,9.409526721903765
1302055.062717014,-8.600112,-0.63172776,3.5247536,9.315841041796041
1302056.218930845,-8.837009,-0.41875893,3.1442811,9.38906761842479
1302057.3751446758,-9.219875,-0.25125536,3.177782,9.755384293357066
1302058.531358507,-9.207911,-0.40440148,3.256748,9.77525309526312
1302059.687572338,-8.832224,-0.6843717,3.6635423,9.586349023159244
1302060.843786169,-8.210068,-0.8279462,3.95787,9.151800173278394
1302062.0,-7.6261983,-0.99066395,4.314413,8.817849800678253
1302062.9065031828,-7.542446,-1.1916683,4.4675593,8.846900649332362
1302064.062717014,-8.040172,-1.3065279,4.3862004,9.251493657351908
1302065.218930845,-8.650363,-1.1916683,4.2115183,9.694624271225203
1302066.3751446758,-8.872903,-1.0696299,4.0799084,9.824366051953357
1302067.531358507,-8.703007,-0.9164838,4.087087,9.658496443198622
1302068.687572338,-8.418251,-0.78008807,4.144517,9.41554610520528
1302069.843786169,-8.394321,-0.7968384,4.0775156,9.366200401176505
1302071.0,-8.530717,-0.82076746,3.9506912,9.436882573988154
1302072.9065031828,-8.710185,-0.9093051,3.9746203,9.617263905512996
1302074.062717014,-8.848974,-0.9021264,4.051193,9.773962227137055
1302075.218930845,-8.939904,-0.7657306,3.8597608,9.767598492680225
1302076.3751446758,-8.868117,-0.7489802,3.8812969,9.7092191288296
1302077.531358507,-9.107409,-0.63651353,3.6946502,9.848882589792312
1302078.687572338,-9.205518,-0.57669085,3.6252558,9.910429536616027
1302079.843786169,-9.404129,-0.6652284,3.6802926,10.12051010050493
1302081.0,-9.253376,-0.6843717,3.7688303,10.014859652103716
1302081.9065031828,-8.908797,-0.7872668,3.8884757,9.752266212069978
1302083.062717014,-8.576182,-1.0385221,4.216304,9.612837524359204
1302084.218930845,-8.652756,-1.2060257,4.407737,9.785337492685956
1302085.3751446758,-8.808294,-1.3328499,4.331164,9.905630401002352
1302086.531358507,-8.79633,-1.4740313,4.42688,9.95718114110011
1302087.687572338,-8.810688,-1.4046371,4.194768,9.858869457998946
1302088.843786169,-8.896832,-1.2155973,4.144517,9.889808774454655
1302090.0,-9.114587,-0.9739136,4.027264,10.012145584565276
1302090.9065031828,-8.693435,-0.84948236,4.3598785,9.762477806066368
1302092.062717014,-8.60729,-0.7657306,4.323985,9.662744474325159
1302093.218930845,-8.674292,-0.7776951,4.216304,9.676020400466506
1302094.3751446758,-8.750865,-0.80641,3.9985495,9.6548606121619
1302095.531358507,-8.798723,-0.73701566,3.7401154,9.58901359468905
1302096.687572338,-8.92794,-0.6269419,3.5103962,9.613742781588762
1302097.843786169,-9.162445,-0.6221561,3.5462897,9.844472927847296
1302099.0,-9.2485895,-0.70830077,3.8334389,10.036600595835527
1302099.9065031828,-9.207911,-0.87819725,4.000942,10.077916068374083
1302101.062717014,-8.77958,-1.1103094,4.2593765,9.821206652386488
1302102.218930845,-8.770008,-0.92605543,4.44363,9.875042610358523
1302103.3751446758,-9.227054,-0.885376,4.5489182,10.325457518705079
1302104.531358507,-9.325163,-0.93802,4.170839,10.258384105739559
1302105.687572338,-9.126552,-1.1150951,3.799938,9.948714353854573
1302106.843786169,-9.035621,-1.2706342,3.4745026,9.763663576919138
1302108.0,-8.98537,-1.4237803,3.4960387,9.746092087163232
1302109.9065031828,-8.509181,-1.4429235,4.027264,9.524024613749653
1302111.062717014,-8.535503,-1.4644598,4.2115183,9.629970942846086
1302112.218930845,-8.449359,-1.5314612,4.4460235,9.669755213061945
1302113.3751446758,-8.592933,-1.6008555,4.4723454,9.818508504415037
1302114.531358507,-8.777187,-1.6822144,4.3024487,9.918665320327532
1302115.687572338,-9.0571575,-1.5529974,3.854975,9.965176122620113
1302116.843786169,-9.203125,-1.3902797,3.2495692,9.858503304023676
1302118.0,-8.719757,-1.2155973,3.436216,9.45089516043175
1302118.9065031828,-8.772401,-1.0313433,3.3213565,9.436635910500529
1302120.062717014,-8.626433,-1.1749178,3.8597608,9.523315156680601
1302121.218930845,-8.435001,-1.3663505,4.357486,9.591863207899038
1302122.3751446758,-8.303391,-1.4859959,4.9317837,9.771232080821921
1302123.531358507,-8.47568,-1.3448143,5.025107,9.944716050513133
1302124.687572338,-8.901618,-1.1629534,4.5680614,10.072658466495602
1302125.843786169,-9.255769,-0.9499845,3.6826856,10.006692938231323
1302127.0,-9.803744,-0.650871,3.304606,10.366168544424358
1302127.9065031828,-9.535739,-0.48336744,3.1586387,10.05688623756433
1302129.062717014,-9.049978,-0.5527618,3.804724,9.83278048794944
1302130.218930845,-9.0978365,-0.8159817,4.4101295,10.143258713166956
1302131.3751446758,-8.999727,-1.1366314,5.111252,10.412104207195535
1302132.531358507,-8.772401,-1.3065279,5.1830387,10.272581205518753
1302133.687572338,-8.968619,-1.2012398,4.680528,10.187563309400783
1302134.843786169,-9.5405245,-0.75615895,3.5558615,10.209678501301967
1302136.0,-10.148323,-0.41875893,3.01985,10.596382060698064
1302136.9065031828,-9.9927845,-0.5264398,2.656128,10.35315878748357
1302138.062717014,-9.411307,-0.64129937,2.8762755,9.86189257100845
1302139.218930845,-9.102622,-0.93323416,3.5486827,9.814367130770798
1302140.3751446758,-9.351485,-1.2993491,4.4962745,10.457297173182278
1302141.531358507,-8.906404,-1.5386399,5.384043,10.520426035999542
1302142.687572338,-8.205282,-0.96194905,5.49651,9.92288369650778
1302143.843786169,-8.107173,-0.6269419,4.381415,9.236671889816678
1302145.0,-8.121531,-0.68915755,2.763809,8.606558202973126
1302146.9065031828,-10.311041,-0.5814767,1.1127023,10.387193464297715
1302148.062717014,-10.543153,-0.34936458,1.0289505,10.599003251373114
1302149.218930845,-9.176803,-0.23211208,1.4979604,9.301154480948002
1302150.3751446758,-8.413465,-0.69155043,3.0605295,8.979503111187636
1302151.531358507,-7.7817373,-1.0863802,5.498903,9.590286312127096
1302152.687572338,-8.332106,-1.1485959,6.9155045,10.888868877264207
1302153.843786169,-8.076065,-0.78008807,6.489567,10.389698894995481
1302155.0,-7.542446,0.21296883,3.5319324,8.331170017688832
1302155.9065031828,-8.559432,0.4785816,1.3902797,8.684802482193515
1302157.062717014,-11.390243,0.78487384,-0.20100428,11.419022080035734
1302158.218930845,-9.684099,0.22732627,1.3184924,9.776086787855908
1302159.3751446758,-8.7053995,-0.46901,2.7350938,9.136995618336407
1302160.531358507,-8.377571,-1.3998512,5.865018,10.321904639285641
1302161.687572338,-8.791544,-1.7659662,7.836774,11.909026377103816
1302162.843786169,-10.057393,-2.1009734,7.755415,12.87290584934814
1302164.0,-10.021499,-1.6870002,5.549154,11.578839406327262
1302164.9065031828,-9.143302,-0.98827106,2.5986981,9.556666938121321
1302166.062717014,-9.418487,-0.59583414,0.15075321,9.438519069318229
1302167.218930845,-8.753258,-0.2368979,-0.43311638,8.767168073455233
1302168.3751446758,-9.13373,-0.6484781,0.64129937,9.179150965151516
1302169.531358507,-9.507024,-1.6798215,3.5319324,10.280070626537933
1302170.687572338,-8.083243,-2.7494514,8.726935,12.20891866187321
1302171.843786169,-8.963834,-2.6130557,10.808765,14.28312924033398
1302173.0,-9.535739,-2.4670882,9.73435,13.848263876212073
1302173.9065031828,-9.066729,-1.430959,4.8767467,10.394030825193992
1302175.062717014,-8.334499,-0.54558307,0.6101916,8.37459660258225
1302176.218930845,-8.719757,-0.11246668,-2.1990826,8.993485151751903
1302177.3751446758,-8.308177,0.2680057,-1.9956853,8.548707032949345
1302178.531358507,-8.935119,-0.3828653,1.2562767,9.031122218698403
1302179.687572338,-9.607526,-1.4213874,5.783659,11.303787392278561
1302180.843786169,-8.155031,-1.8712541,10.68912,13.574365874401936
1302182.0,-8.932726,-1.3878866,11.481173,14.612910608823437
1302183.9065031828,-9.250982,-1.1390243,8.468502,12.593393920795082
1302185.062717014,-8.781973,-0.33979294,3.2376046,9.365927213081683
1302186.218930845,-9.576418,0.60779864,-1.1318455,9.662208605354166
1302187.3751446758,-10.346934,0.97152066,-2.2565124,10.634601252727654
1302188.531358507,-11.308884,0.5886554,-0.60779864,11.34049345011896
1302189.687572338,-11.110272,-1.1892753,4.132552,11.913459014319816
1302190.843786169,-10.622119,-2.0220072,9.016478,14.078877820746113
1302192.0,-10.473759,-1.8066456,11.299312,15.512512613610484
1302192.9065031828,-9.535739,-0.6484781,9.095444,13.19386007502871
1302194.062717014,-8.45893,-0.24168372,4.4101295,9.542596605336689
1302195.218930845,-9.241411,0.16271774,-0.15314612,9.244112075689193
1302196.3751446758,-11.088737,0.61497736,-2.8906329,11.475802541480224
1302197.531358507,-10.114822,0.5025107,-1.9478272,10.312912871558565
1302198.687572338,-9.643419,-0.37090075,1.4501023,9.75888795183021
1302199.843786169,-7.6333766,-1.4189945,7.2529044,10.62481086626944
1302201.0,-7.5137315,-1.040915,11.756357,13.991125580265736
1302201.9065031828,-8.973405,-0.7513731,11.380671,14.512278637060053
1302203.062717014,-8.724543,-0.79205257,6.8413243,11.115247006264102
1302204.218930845,-8.415857,-0.15075321,1.0696299,8.484897388757764
1302205.3751446758,-9.928176,0.6269419,-2.6848428,10.30388837738761
1302206.531358507,-11.14138,0.87580436,-3.0964231,11.596776172523493
1302207.687572338,-11.25624,0.60301286,-1.14381,11.330263225672446
1302208.843786169,-10.40915,-0.60301286,2.3737648,10.693399251760145
1302210.0,-8.669506,-1.2754201,7.803273,11.733631161241135
1302210.9065031828,-8.60729,-1.1007377,10.732193,13.801341645562953
1302212.062717014,-8.411072,-0.9858781,11.036092,13.910909907324813
1302213.218930845,-8.408679,-1.1988469,6.956184,10.978689004454795
1302214.3751446758,-8.959048,-0.7681235,1.9885067,9.20916465666138
1302215.531358507,-10.054999,-0.21296883,-2.8188457,10.444819371006904
1302216.687572338,-9.447201,-0.40440148,-2.5125535,9.783970174821132
1302217.843786169,-8.918368,-1.2179902,0.28475606,9.005657884043051
1302219.0,-8.803509,-1.9741492,6.6714277,11.22082810372162
1302220.9065031828,-10.267968,-1.9956853,11.08395,15.240337078560962
1302222.062717014,-10.052607,-1.8664683,11.402207,15.314990560957028
1302223.218930845,-8.032992,-1.2203832,6.824574,10.610989864681912
1302224.3751446758,-7.5448394,-0.26082698,1.457281,7.688712518897379
1302225.531358507,-10.607761,0.35415038,-2.3641932,10.873795354507156
1302226.687572338,-11.392635,0.46901,-2.6680925,11.710286939775697
1302227.843786169,-10.342149,-0.09810923,-0.3613291,10.348924102423352
1302229.0,-9.100229,-1.3711363,3.8573678,9.978650657784124
1302229.9065031828,-6.6666417,-1.5673548,8.92794,11.25205871246955
1302231.062717014,-6.7336435,-0.96194905,11.201202,13.104740630958409
1302232.218930845,-5.8554463,-1.5984626,10.205753,11.874288540910205
1302233.3751446758,-6.556568,-1.746823,6.345992,9.290403058856866
1302234.531358507,-9.696064,-1.1509888,1.6965718,9.910438344613052
1302235.687572338,-13.505573,-0.016750356,-1.9908996,13.651537050824544
1302236.843786169,-12.914525,0.54079723,-2.495803,13.164590773526145
1302238.0,-11.450066,-0.94280577,0.7418015,11.51273918707896
1302238.9065031828,-9.483095,-2.029186,6.307706,11.56865772611745
1302240.062717014,-8.432608,-1.7372513,10.4857235,13.567509612285814
1302241.218930845,-6.2861695,-1.1581675,10.232075,12.064519789300007
1302242.3751446758,-6.609212,-0.57429796,5.790838,8.805981271275119
1302243.531358507,-9.193553,-0.13400285,1.5769265,9.328776485371455
1302244.687572338,-13.132279,0.78008807,-2.2254045,13.342327919797864
1302245.843786169,-13.14903,0.75376606,-1.8664683,13.302212489996272
1302247.0,-11.34717,-0.24407662,0.2680057,11.352958533376361
1302247.9065031828,-8.420644,-1.7516087,5.8386955,10.395467452422325
1302249.062717014,-7.104544,-1.4979604,10.160288,12.48798955199948
1302250.218930845,-7.001649,-1.0480938,10.229682,12.440578087610055
1302251.3751446758,-6.707321,-0.94280577,6.86286,9.642400380433614
1302252.531358507,-7.5591965,-0.7513731,2.4934103,7.995192817259753
1302253.687572338,-10.86141,-0.011964541,-1.2395264,10.931916393507512
1302254.843786169,-13.510359,0.60779864,-3.2926416,13.919077131825853
1302256.0,-12.246903,0.51926106,-1.7731448,12.385487782950188
1302256.9065031828,-10.768086,-0.7896597,2.3785505,11.055891688427955
1302258.062717014,-6.1737027,-1.4764243,7.810452,10.064670595003186
1302259.218930845,-5.386436,-0.2632199,10.519224,11.82104272304385
1302260.3751446758,-6.17131,-0.16750357,9.332341,11.189535875198029
1302261.531358507,-7.365371,-0.08375178,5.204575,9.019052348163811
1302262.687572338,-10.007142,-0.016750356,1.2634555,10.086599594663722
1302263.843786169,-14.48188,0.60301286,-2.6106627,14.727662155851371
1302265.0,-14.517774,0.69633627,-3.017457,14.844382535587073
1302266.9065031828,-11.634319,-0.1483603,-0.83991075,11.665540683583535
1302268.062717014,-7.5400534,-0.9164838,4.1780176,8.668804928963608
1302269.218930845,-4.766673,-0.37090075,7.5113387,8.90387263618462
1302270.3751446758,-3.776009,-0.18186101,8.418251,9.228123714712554
1302271.531358507,-6.195239,-0.69155043,6.9848986,9.362053018255992
1302272.687572338,-8.87051,-1.6056414,6.257455,10.973594444962824
1302273.843786169,-10.780051,-1.6511066,4.6518135,11.856433755811517
1302275.0,-13.393106,-0.95237744,1.3663505,13.496267069242043
1302275.9065031828,-11.847288,-0.40440148,-2.0937946,12.037680396943564
1302277.062717014,-8.308177,-0.5551547,-0.43311638,8.337960877989618
1302278.218930845,-7.705164,-0.4977249,2.8236315,8.22132453992471
1302279.3751446758,-8.803509,-0.6293348,6.070808,10.712261328796831
1302280.531358507,-9.363449,-0.7346228,7.6166263,12.092429202924139
1302281.687572338,-9.203125,-0.93323416,7.362978,11.822938754451023
1302282.843786169,-9.5405245,-0.9954498,4.5225964,10.605017974370117
1302284.0,-9.52856,-0.16989647,0.5886554,9.548237306648156
1302284.9065031828,-9.772636,0.74658734,-3.1442811,10.293119579629952
1302286.062717014,-8.387143,0.5910483,-1.6630712,8.570840776239594
1302287.218930845,-7.7267003,-0.33979294,2.763809,8.213159986057434
1302288.3751446758,-6.1234517,-0.9451987,8.561825,10.568581202571119
1302289.531358507,-7.2648687,-1.2586696,9.751101,12.224832804681006
1302290.687572338,-7.57834,-1.6822144,8.72215,11.67634288061409
1302291.843786169,-8.210068,-1.4046371,5.0442505,9.737694031651984
1302293.0,-10.835088,-0.5288327,1.1007377,10.903688342782665
1302293.9065031828,-13.998512,-0.12203831,-1.5171037,14.081009736514117
1302295.062717014,-13.663506,-0.026321989,-2.1727605,13.835207886024017
1302296.218930845,-8.827438,-0.650871,-0.16511066,8.852940541567568
1302297.3751446758,-5.23329,-0.6101916,6.274205,8.193003502674435
1302298.531358507,-6.4536734,-0.49293905,10.07175,11.972177634974452
1302299.687572338,-7.2002606,-0.93084127,9.33952,11.829490775525697
1302300.843786169,-8.664721,-1.0074143,5.649656,10.392828609094904
1302302.0,-11.076772,-0.93562704,1.952613,11.286406577194185
1302303.9065031828,-12.146401,-0.5886554,-0.64129937,12.17755465250362
1302305.062717014,-13.476858,0.031107806,-2.6633067,13.737535143759343
1302306.218930845,-11.430922,-0.34457877,-1.2155973,11.500538643671696
1302307.3751446758,-8.621648,-1.0624512,3.125138,9.231906861928875
1302308.531358507,-4.6278844,-1.2706342,8.982977,10.184581536445275
1302309.687572338,-5.5611186,-1.0361292,10.918839,12.297180526863855
1302310.843786169,-6.6857853,-1.3113136,8.746079,11.08662105014337
1302312.0,-7.5448394,-0.9834852,3.7425082,8.479281357372136
1302312.9065031828,-9.739136,-0.45943835,-0.5144752,9.763531039299346
1302314.062717014,-13.036563,-0.03828653,-3.3787863,13.46735451276219
1302315.218930845,-14.977212,0.39482984,-3.4864671,15.382724815028084
1302316.3751446758,-13.29739,-0.57908374,-0.99066395,13.346809875466946
1302317.531358507,-9.33952,-2.2995846,5.367293,11.01465193779659
1302318.687572338,-5.8674107,-2.1584032,9.461558,11.340471440094928
1302319.843786169,-3.1203523,-2.0746512,12.47423,13.024868144080259
1302321.0,-4.979642,-1.7276796,10.399578,11.659027996642951
1302322.9065031828,-6.84611,-1.0504867,4.6781354,8.35809160393149
1302324.062717014,-7.903775,0.22732627,-1.2538838,8.005845431155885
1302325.218930845,-13.70897,0.84708947,-5.666406,14.858047516006971
1302326.3751446758,-15.328969,1.2179902,-4.998785,16.169373587324962
1302327.531358507,-15.9271965,0.11246668,-2.184725,16.076730402334533
1302328.687572338,-10.985841,-1.7994668,4.4340587,11.982806841330163
1302329.843786169,-5.96552,-1.8018597,11.852074,13.390511019014925
1302331.0,-3.7879734,-1.433352,13.563004,14.154798406866398
1302331.9065031828,-4.9389625,-1.2682413,10.370864,11.556669359202413
1302333.062717014,-7.896597,-1.2897775,4.450809,9.155843540296889
1302334.218930845,-10.815945,-0.93562704,-1.0433079,10.906353908397001
1302335.3751446758,-12.983919,-0.3230426,-4.398165,13.712416435012495
1302336.531358507,-13.096386,-0.52165395,-3.697043,13.61820751965528
1302337.687572338,-12.54841,-1.2036327,1.5841051,12.705145185020724
1302338.843786169,-8.925548,-1.328064,6.824574,11.313884009034032
1302340.0,-6.7599654,-1.0648441,10.416329,12.463183180983219
1302340.9065031828,-6.92029,-1.0337363,9.574025,11.858371689345157
1302342.062717014,-7.896597,-0.98827106,5.106466,9.455628951984025
1302343.218930845,-9.054764,-0.72744405,0.95237744,9.133725895262971
1302344.3751446758,-11.282561,-0.25125536,-2.060294,11.471884036246431
1302345.531358507,-11.483566,-0.5623334,-1.4692456,11.59082350664658
1302346.687572338,-9.361056,-0.60301286,1.0815945,9.44260772281109
1302347.843786169,-9.004513,-0.6652284,4.455595,10.068570404747664
1302349.0,-7.10933,-0.9499845,7.324692,10.2516416487314
1302349.9065031828,-6.611605,-1.1318455,9.093051,11.299467748548878
1302351.062717014,-7.133259,-1.4261732,7.425194,10.394751555237635
1302352.218930845,-8.571397,-1.1246668,3.0677083,9.173034184855092
1302353.3751446758,-11.409386,-0.5240469,-1.0385221,11.468532696146616
1302354.531358507,-13.742471,-0.2943277,-2.4359803,13.959804368357617
1302355.687572338,-11.33042,-0.42354473,-0.30389932,11.342405490521278
1302356.843786169,-6.8293595,-0.08614469,3.723365,7.778882889662271
1302358.0,-6.1378093,-0.12443122,7.0638647,9.35875903267005
1302359.9065031828,-6.86286,-0.43790218,7.5400534,10.205048308249223
1302361.062717014,-7.7171288,-0.9691278,7.654913,10.91288131732822
1302362.218930845,-9.52856,-1.5458187,5.8004093,11.261783125881806
1302363.3751446758,-10.337363,-1.2084186,2.163189,10.630180429151517
1302364.531358507,-12.510123,-0.39961565,-1.0600582,12.561313368045603
1302365.687572338,-13.780758,-0.18186101,-1.720501,13.88893401858196
1302366.843786169,-11.61039,-0.5049036,1.9238981,11.779535962701441
1302368.0,-7.3390493,-0.35893622,6.4417086,9.771698395119056
1302368.9065031828,-6.0397,-0.20100428,8.6048975,10.5148770699464
1302370.062717014,-7.492195,-0.42115182,7.865489,10.870891039037938
1302371.218930845,-9.045193,-1.0337363,5.8123736,10.801287608945687
1302372.3751446758,-10.078929,-1.2203832,2.21344,10.391027936421075
1302373.531358507,-12.086578,-0.99784267,-0.95237744,12.165035163630957
1302374.687572338,-15.211717,-1.1581675,-1.562569,15.335556981274147
1302375.843786169,-14.235411,-1.3424214,1.5051392,14.377568138091906
1302377.0,-9.332341,-1.119881,5.8386955,11.065129332102822
1302377.9065031828,-3.7137933,-0.22014755,9.351485,10.06434286598588
1302379.062717014,-3.9530842,0.002392908,8.691042,9.547831767687486
1302380.218930845,-6.0827723,-0.37807947,5.8482676,8.446614520652197
1302381.3751446758,-7.896597,-0.7968384,2.4000869,8.291659227420961
1302382.531358507,-10.55751,-1.3448143,-1.0720228,10.696671247883817
1302383.687572338,-13.900403,-1.3089207,-2.3474429,14.157858776314233
1302384.843786169,-16.197596,-1.3759222,-1.1390243,16.295786401265186
1302386.0,-14.484273,-1.4955676,4.3168063,15.18768262166478
1302386.9065031828,-8.413465,-1.0768087,8.810688,12.230050421644416
1302388.062717014,-4.4914885,-0.32064968,10.050214,11.012860055803504
1302389.218930845,-3.9626558,0.2919348,7.159581,8.18825176776372
1302390.3751446758,-5.204575,0.17468229,4.3096275,6.759512114185528
1302391.531358507,-8.303391,-0.9547703,1.2658484,8.453417095850982
1302392.687572338,-11.933433,-1.5171037,-0.8901618,12.062371857649802
1302393.843786169,-16.02052,-1.6630712,-1.0026284,16.137785802121556
1302395.0,-15.197359,-1.4548881,2.450338,15.462230637027977
1302395.9065031828,-8.805902,-0.80641,6.769537,11.13646435436638
1302397.062717014,-5.156717,0.035893623,9.009299,10.380774876745091
1302398.218930845,-5.49651,0.60301286,6.6498914,8.64848555073195
1302399.3751446758,-6.6666417,0.5551547,4.381415,7.9968184735765995
1302400.531358507,-8.506788,-0.31586388,2.3450499,8.829749209412613
1302401.687572338,-10.303863,-0.9571632,1.196454,10.417161623413513
1302402.843786169,-14.59674,-1.3089207,0.6389065,14.669229480181663
1302404.0,-14.225839,-1.3472073,1.1366314,14.334622202993712
1302405.9065031828,-8.798723,-0.89734054,5.549154,10.441065874285657
1302407.062717014,-5.417544,-0.4737958,7.444337,9.219133300999754
1302408.218930845,-6.121059,-0.05025107,7.78413,9.902654609165017
1302409.3751446758,-7.786523,-0.2584341,5.6113696,9.601260198608095
1302410.531358507,-6.692964,-0.90451926,3.984192,7.841409827950007
1302411.687572338,-6.745608,-1.0313433,2.5364826,7.280153863224434
1302412.843786169,-10.461794,-0.7513731,0.70112205,10.512148560728953
1302414.0,-14.340698,-0.45465255,-0.43072346,14.354366958087
1302414.9065031828,-13.373963,-0.22971918,-0.77290934,13.398247873318665
1302416.062717014,-9.614705,-0.16989647,4.338342,10.5495321392234
1302417.218930845,-6.6738205,-0.703515,7.970777,10.419601691291959
1302418.3751446758,-5.056215,-1.1749178,10.567082,11.773230820709575
1302419.531358507,-5.472581,-1.2275618,7.1212945,9.064705518113122
1302420.687572338,-7.1524024,-1.0504867,2.450338,7.63312116454643
1302421.843786169,-10.198574,-1.0457008,-0.80162424,10.283336191078858
1302423.0,-13.213638,-0.9475916,-2.4359803,13.469675536456794
1302423.9065031828,-15.613726,-1.0648441,-2.7135577,15.883504901362612
1302425.062717014,-15.5251875,-1.3783151,1.2467052,15.636031250952119
1302426.218930845,-10.607761,-1.5171037,8.066493,13.412475774021875
1302427.3751446758,-4.450809,-1.430959,11.263418,12.195160083282465
1302428.531358507,-0.3613291,-0.6867646,9.547704,9.579188692469522
1302429.687572338,-1.7994668,0.31825677,4.245019,4.621639800580966
1302430.843786169,-7.049507,0.2680057,0.12443122,7.05569692707901
1302432.0,-11.976505,-0.9140909,-2.7183435,12.315097465001244
1302432.9065031828,-14.6398115,-1.9191123,-2.392908,14.957709766939843
1302434.062717014,-16.039663,-2.495803,0.110073775,16.23305079165099
1302435.218930845,-12.888203,-1.9765421,5.6257267,14.20074984447562
1302436.3751446758,-6.812609,-0.9786994,7.994706,10.549161953865214
1302437.531358507,-2.0698655,0.002392908,8.018635,8.281476690622508
1302438.687572338,-3.9147975,0.42593765,5.360114,6.6511566242789515
1302439.843786169,-6.7049284,-0.21057591,2.885847,7.302637877534932
1302441.0,-8.334499,-0.7609448,-0.20339718,8.371635502246855
1302442.9065031828,-12.234939,-1.4979604,-1.0552725,12.371387058165524
1302444.062717014,-16.68814,-2.0890088,-1.1797037,16.85970566901662
1302445.218930845,-14.235411,-1.5051392,1.0983448,14.356835711603885
1302446.3751446758,-9.784601,-0.44747382,4.012907,10.584992779375686
1302447.531358507,-6.168917,-0.4785816,7.803273,9.958697043954924
1302448.687572338,-3.5271466,-0.21775463,8.183745,8.914138345448931
1302449.843786169,-0.9404129,-0.17468229,6.558961,6.628337629032415
1302451.0,-5.15911,-0.5360114,3.8334389,6.449726971978207
1302451.9065031828,-11.4716015,-1.742037,1.5290682,11.703434685784448
1302453.062717014,-14.204303,-1.7276796,-1.3089207,14.368729029213183
1302454.218930845,-12.773343,-1.3831009,-0.9093051,12.88014344873984
1302455.3751446758,-13.385928,-1.2347406,3.2471762,13.829381983455326
1302456.531358507,-9.0978365,-0.50968945,5.3026843,10.542716590217156
1302457.687572338,-5.568297,0.033500712,6.3388133,8.437274905452021
1302458.843786169,-4.6494203,0.16750357,5.515653,7.215787870248393
1302460.0,-7.887025,0.0598227,4.6398487,9.150788931286307
1302460.9065031828,-10.045428,-0.057429794,2.2852273,10.30224178017038
1302462.062717014,-10.574261,0.105287954,-1.1725249,10.639590964435547
1302463.218930845,-13.512752,-0.22254045,-0.7513731,13.535455382099038
1302464.3751446758,-13.328498,-0.58626246,0.9499845,13.375164789947432
1302465.531358507,-10.512045,-0.62454903,5.527618,11.893179235461936
1302466.687572338,-6.9729342,-0.5838696,7.650127,10.367601370783062
1302467.843786169,-5.228504,-0.66283554,8.923154,10.363362501563818
1302469.0,-5.199789,-1.3137065,7.288798,9.049320786526868
1302469.9065031828,-6.6283555,-1.8138243,4.084694,7.994359280097858
1302471.062717014,-9.909033,-1.8856115,0.5168682,10.100080121473914
1302472.218930845,-13.850152,-1.9454343,-2.0387578,14.133929333549863
1302473.3751446758,-15.508437,-1.823396,-2.8164527,15.867223984274071
1302474.531358507,-14.314376,-1.4237803,0.42115182,14.391173665394124
1302475.687572338,-10.038249,-0.8040171,5.388829,11.421574518179813
1302476.843786169,-4.8336744,-0.3254355,7.0279713,8.535964916955745
1302478.0,-2.1799393,-0.016750356,7.702771,8.005316796014485
1302479.9065031828,-4.7283864,0.4115802,5.9559484,7.615796580279673
1302481.062717014,-8.013849,-0.4115802,4.6661706,9.28247392262092
1302482.218930845,-9.739136,-1.536247,1.9717562,10.054782314090318
1302483.3751446758,-11.323241,-2.5891266,1.6176059,11.727574861949224
1302484.531358507,-11.184452,-2.6872358,1.7875023,11.64080612576341
1302485.687572338,-10.847053,-2.0722585,2.5101607,11.324915929730151
1302486.843786169,-12.34262,-0.7872668,2.9241338,12.708682699598912
1302488.0,-11.856859,0.0598227,3.8406174,12.463507777287221
1302488.9065031828,-8.363214,0.31825677,4.814531,9.655275476722961
1302490.062717014,-4.891104,0.62454903,5.510867,7.394769429899687
1302491.218930845,-6.645106,0.6819788,6.257455,9.15304713807978
1302492.3751446758,-10.605369,0.33740005,2.0722585,10.81119538768601
1302493.531358507,-11.51946,-0.5264398,0.2919348,11.535177652818144
1302494.687572338,-11.792251,-1.2562767,2.3857293,12.096574684051777
1302495.843786169,-7.5615897,-1.3089207,5.2931128,9.3224436337024
1302497.0,-4.5178103,-1.1868824,7.3270845,8.689388183776583
1302497.9065031828,-5.7453723,-0.7226582,5.518046,7.998772993262812
1302499.062717014,-8.439787,-0.9475916,4.2282686,9.487159205974438
1302500.218930845,-9.779816,-1.119881,1.2706342,9.925393983022873
1302501.3751446758,-9.9927845,-0.8518753,-0.22254045,10.031498285005911
1302502.531358507,-12.677627,-0.7226582,-0.016750356,12.698218056073157
1302503.687572338,-14.211481,-0.6867646,-0.53840435,14.238248385011167
1302504.843786169,-14.953282,-1.536247,4.5776334,15.713542724711335
1302506.0,-9.6912775,-1.1892753,7.410836,12.257884219558134
1302506.9065031828,-3.565433,-1.6319634,10.591011,11.293588048912957
1302508.062717014,-1.849718,-1.3878866,8.095208,8.419030731458792
1302509.218930845,-5.6065836,-0.77530223,3.0054924,6.4084208490149654
1302510.3751446758,-8.767615,-0.48815325,-0.7944455,8.81705790137395
1302511.531358507,-11.713285,-1.2108115,-1.3902797,11.857486564360483
1302512.687572338,-15.656797,-2.502982,1.0624512,15.891161497634917
1302513.843786169,-14.4412,-2.266084,0.24407662,14.619951009886684
1302515.0,-9.373021,-1.5912839,4.76428,10.634099446367813
1302516.9065031828,-7.942062,-1.3328499,7.1165085,10.746977756483274
1302518.062717014,-5.9559484,-1.0600582,7.415622,9.570187792187456
1302519.218930845,-5.546761,-0.63172776,5.4797597,7.822621294912576
1302520.3751446758,-7.810452,-0.8805902,4.419701,9.017336440104751
1302521.531358507,-9.203125,-0.80880296,1.1797037,9.313612232293304
1302522.687572338,-9.959284,-0.67001426,-2.21344,10.224263960543045
1302523.843786169,-11.488352,-1.1007377,-0.96434194,11.581183468771586
1302525.0,-14.053549,-1.1270597,-0.25604117,14.100995005441995
1302525.9065031828,-11.091129,-0.96434194,3.5534685,11.686326893099311
1302527.062717014,-9.126552,-1.0457008,7.85831,12.088857581588288
1302528.218930845,-4.321592,-0.6939433,9.662563,10.607678277881918
1302529.3751446758,-3.9506912,-0.23211208,6.695357,7.777508748493206
1302530.531358507,-4.606348,-0.15793194,2.2995846,5.1508711619815655
1302531.687572338,-10.215324,-0.69155043,-0.15793194,10.239923286816232
1302532.843786169,-14.484273,-1.1725249,-1.6056414,14.620091083336073
1302534.0,-15.503652,-1.2897775,-0.34936458,15.561131287485779
1302534.9065031828,-11.210774,-0.8040171,4.008121,11.93285092200558
1302536.062717014,-4.692493,-0.71787244,8.525931,9.758397963391406
1302537.218930845,-3.2304258,-0.69633627,7.7769513,8.449941217120676
1302538.3751446758,-7.9827414,-0.7394086,4.790602,9.339205151372996
1302539.531358507,-10.949947,-0.59583414,0.37568656,10.972579369344437
1302540.687572338,-10.97627,-0.46661708,-0.53840435,10.999368793542047
1302541.843786169,-12.242118,-0.6269419,0.8279462,12.28608986545329
1302543.0,-12.735057,0.13878867,-0.9858781,12.773914619889588
1302543.9065031828,-12.249296,0.30150643,0.49293905,12.26291757820961
1302545.062717014,-11.342384,0.107680865,4.761887,12.301903827168871
1302546.218930845,-5.57069,-0.12921704,7.0207925,8.963303601216607
1302547.3751446758,-2.998314,-1.0217718,10.739371,11.196784981837967
1302548.531358507,-4.8025665,-1.5506045,8.31057,9.722890158139323
1302549.687572338,-7.683628,-1.8401463,3.936334,8.827174123542806
1302550.843786169,-9.313198,-2.450338,0.19143265,9.632053766509717
1302552.0,-13.718542,-3.0533507,-1.6439278,14.150047481000454
1302553.9065031828,-13.905189,-2.0985804,-3.5080032,14.493598837838565
1302555.062717014,-12.402443,-0.8231604,0.33500713,12.434243651687385
1302556.218930845,-10.55751,-0.057429794,4.6542063,11.538022008312282
1302557.3751446758,-5.704693,0.37807947,7.1236873,9.134187816005634
1302558.531358507,-3.0150642,0.16511066,9.203125,9.685834162620806
1302559.687572338,-5.412758,-0.20100428,7.6668777,9.38719156904234
1302560.843786169,-9.152873,-0.7154795,2.7997024,9.598194027920826
1302562.0,-11.938218,-1.9621847,1.0241647,12.14166920753338
1302562.9065031828,-14.747493,-2.2732627,-0.94280577,14.951426547597576
1302564.062717014,-11.663034,-1.1797037,-0.72744405,11.74509419931701
1302565.218930845,-9.830067,-0.1459674,3.3381069,10.382412117720012
1302566.3751446758,-7.367764,0.4450809,5.1519313,9.001357646886413
1302567.531358507,-4.773852,0.49293905,6.5422106,8.113764315018724
1302568.687572338,-3.9171906,0.40200856,6.1330233,7.288344659618158
1302569.843786169,-6.7312503,-0.12203831,4.991606,8.380975743288712
1302571.0,-6.8580747,-0.34697166,2.6633067,7.365241374312735
1302571.9065031828,-11.904717,-1.4094229,1.9238981,12.141257910954574
1302573.062717014,-14.926961,-1.4812101,-1.8257889,15.11097790228105
1302574.218930845,-9.8922825,-0.5431901,-1.3113136,9.993590541046258
1302575.3751446758,-8.810688,-0.17946811,5.7358007,10.514744005726982
1302576.531358507,-9.729565,-0.4737958,7.9564195,12.577500896811848
1302577.687572338,-9.782208,-0.5025107,6.0373073,11.50622395894986
1302578.843786169,-10.279933,-0.7346228,4.979642,11.446114082558012
1302580.0,-9.5500965,-0.8351249,2.8714898,10.00735881386374
1302580.9065031828,-7.0782223,0.021536173,0.5288327,7.097982724658751
1302582.062717014,-10.0932865,-0.05025107,1.1390243,10.157476748538924
1302583.218930845,-12.952811,-0.43311638,-0.0071787243,12.960052242735285
1302584.3751446758,-10.251218,-0.5814767,2.4981961,10.567240386696145
1302585.531358507,-9.215089,-1.0504867,6.43453,11.288248930002293
1302586.687572338,-4.742744,-0.79205257,6.661856,8.215917069196573
1302587.843786169,-1.0385221,-0.45465255,7.2696548,7.3575211861450285
1302589.0,-5.0203214,-0.46661708,4.3646646,6.668707185739891
1302589.9065031828,-8.456537,-0.78487384,0.10289505,8.493505305137559
1302591.062717014,-10.870981,-0.89734054,-1.3472073,10.99083324667706
1302592.218930845,-12.077007,-1.1797037,0.10050214,12.134904184952894
1302593.3751446758,-11.864038,-1.5745336,3.8908687,12.584649894359902
1302594.531358507,-12.318691,-1.5051392,5.723836,13.666670791372479
1302595.687572338,-12.239725,-0.98109233,5.3529353,13.39504858377139
1302596.843786169,-8.724543,-0.28475606,5.005964,10.062723892756459
1302598.0,-5.903304,0.6125845,5.910483,8.376041259410394
1302599.9065031828,-4.527382,1.1988469,4.3526998,6.393779571777842
1302601.062717014,-3.986585,2.3809435,1.4644598,4.868921278705714
1302602.218930845,-8.155031,2.0124357,1.0624512,8.466594983225365
1302603.3751446758,-10.574261,0.9667349,0.0,10.618360140012157
1302604.531358507,-11.265811,-0.17707519,2.1560102,11.47162730797765
1302605.687572338,-12.613019,-0.93323416,3.390751,13.094134818144836
1302606.843786169,-7.8248096,-1.0002356,6.010985,9.91766389841804
1302608.0,-4.6709566,-0.63651353,7.6764493,9.008377150654113
1302608.9065031828,-6.824574,-0.5551547,6.9346476,9.745375537073667
1302610.062717014,-8.334499,-0.25125536,2.237369,8.633239419771161
1302611.218930845,-10.325398,-0.72505116,2.21344,10.584841032184723
1302612.3751446758,-14.658955,-1.2179902,-0.6843717,14.725380349691548
1302613.531358507,-12.651305,-0.6173703,-2.318728,12.876846035746917
1302614.687572338,-9.229446,0.040679436,2.680057,9.610776961654986
1302615.843786169,-8.975799,-0.08135887,6.6163907,11.151152982950919
1302617.0,-5.541975,-0.028714897,7.815238,9.580827544767661
1302617.9065031828,-5.4701877,0.2057901,7.468266,9.259605827746952
1302619.062717014,-6.0755935,0.37090075,2.7757733,6.689941790224015
1302620.218930845,-6.420172,0.4737958,0.4977249,6.456842962761418
1302621.3751446758,-8.439787,0.31586388,0.06460852,8.445942745301691
1302622.531358507,-11.069592,-0.32064968,0.72744405,11.098101554303263
1302623.687572338,-14.326341,-1.4118158,2.9743848,14.699803918416112
1302624.843786169,-14.828852,-1.849718,3.5486827,15.359344296639335
1302626.0,-8.700614,-1.770752,7.939669,11.911112057740914
1302626.9065031828,-7.44673,-0.5623334,8.097601,11.015495835451826
1302628.062717014,-6.5541754,0.3852582,3.6587565,7.516125210567254
1302629.218930845,-4.469952,0.9404129,3.5917552,5.810813430279572
1302630.3751446758,-8.387143,1.067237,4.9389625,9.791655278502416
1302631.531358507,-9.966462,0.8255533,1.0169859,10.052172072213233
1302632.687572338,-7.7889156,1.1366314,-1.6176059,8.035906047926652
1302633.843786169,-9.468738,0.98109233,1.3256711,9.611292594547523
1302635.0,-8.994942,0.58626246,3.1921394,9.562554010535136
1302636.9065031828,-10.054999,0.016750356,5.9056973,11.661069679221303
1302638.062717014,-10.349327,-0.21296883,4.8887115,11.447856795300718
1302639.218930845,-7.44673,-0.51208234,3.4529665,8.224292897627256
1302640.3751446758,-5.723836,-0.15553902,4.0176926,6.994879896733991
1302641.531358507,-9.093051,-0.4091873,4.8217096,10.300480289860976
1302642.687572338,-12.041114,-0.92366254,2.0770442,12.253803142598176
1302643.843786169,-17.276796,-1.6487137,-1.0361292,17.386187063565043
1302645.0,-11.550568,-1.8903974,1.6295704,11.817136841938783
1302645.9065031828,-6.5182815,-1.6798215,9.535739,11.672193978049949
1302647.062717014,-5.266791,-0.4785816,9.708028,11.055041177414202
1302648.218930845,-5.360114,0.35893622,6.3100986,8.287158840323132
1302649.3751446758,-8.643184,0.92605543,2.8786685,9.156906718438314
1302650.531358507,-11.318456,0.60779864,0.10050214,11.335209133089094
1302651.687572338,-10.739371,0.6484781,-0.72744405,10.783496101343989
1302652.843786169,-12.321084,1.117488,-2.4072654,12.603682678933058
1302654.0,-11.828145,0.99066395,-1.304135,11.940988120799702
1302655.9065031828,-10.375649,0.24646953,4.4603806,11.29645229695039
1302657.062717014,-13.625218,-1.2706342,8.832224,16.28708867796543
1302658.218930845,-8.056922,-2.2254045,8.688649,12.056493634050707
1302659.3751446758,-3.936334,-2.237369,7.602269,8.848448414839632
1302660.531358507,-5.886554,-1.7922882,3.275891,6.971031260197894
1302661.687572338,-6.738429,-1.5003533,1.0911661,6.9891436435840335
1302662.843786169,-11.876003,-1.899969,2.4934103,12.282769410076709
1302664.0,-10.102858,-1.3902797,2.914562,10.606379639831873
1302664.9065031828,-6.6235695,-0.17228939,4.867175,8.221359318011944
1302666.062717014,-9.507024,0.8542682,3.0007067,10.005874284315794
1302667.218930845,-9.231839,0.7513731,4.8001738,10.432309493469367
1302668.3751446758,-11.430922,1.4285661,4.2665553,12.284554245071789
1302669.531358507,-13.0916,1.4142087,1.9550059,13.312100693586663
1302670.687572338,-10.904482,1.4405307,2.390515,11.255994773950079
1302671.843786169,-11.378278,1.7324655,2.1966896,11.717170825447687
1302673.0,-11.359135,1.5936768,0.83751786,11.500921261225217
1302673.9065031828,-10.607761,1.14381,1.2155973,10.738276004321564
1302675.062717014,-12.802058,0.13878867,3.256748,13.210539688664818
1302676.218930845,-9.763065,-1.2419193,5.0945015,11.082136403935827
1302677.3751446758,-6.9896846,-2.0722585,8.31057,11.055112836294319
1302678.531358507,-7.57834,-2.1249025,6.221561,10.032660119172146
1302679.687572338,-7.099758,-2.2828343,5.5252247,9.281487169915744
1302680.843786169,-11.871217,-1.8210031,2.3450499,12.236874780138457
1302682.0,-10.368471,-1.6487137,-0.28236315,10.502531918108442
1302682.9065031828,-10.801587,-0.15314612,-2.1225095,11.00921350643316
1302684.062717014,-12.22776,0.66044265,-0.28954187,12.249005412931373
1302685.218930845,-11.143773,0.009571632,5.515653,12.434074002839019
1302686.3751446758,-13.565396,-0.18186101,7.5711613,15.536264850162407
1302687.531358507,-10.708263,-0.028714897,4.1564813,11.48669046417324
1302688.687572338,-6.3292418,0.6652284,2.5699832,6.863428023612984
1302689.843786169,-5.6999073,0.89494765,4.5919905,7.37402544590972
1302691.0,-5.953555,0.27518442,7.0160065,9.205698822527163
1302692.9065031828,-14.311983,-0.22014755,1.9071478,14.44017088081387
1302694.062717014,-13.493608,-0.39243692,-3.1873536,13.870496983355574
1302695.218930845,-8.6455765,-0.5312256,3.649185,9.399188519211252
1302696.3751446758,-9.547704,0.34936458,5.8458743,11.200667552104877
1302697.531358507,-8.901618,0.08375178,6.439316,10.986837940300802
1302698.687572338,-8.430215,0.5599405,4.950927,9.792534731574571
1302699.843786169,-9.765458,1.3567789,1.978935,10.055903871232772
1302701.0,-8.748472,1.014593,1.9382555,9.01787090580217
1302701.9065031828,-11.36392,1.2060257,0.93084127,11.46558507994231
1302703.062717014,-13.005455,0.94280577,0.110073775,13.040048263442625
1302704.218930845,-9.327556,0.87580436,2.555626,9.710898952311624
1302705.3751446758,-11.837716,0.44747382,4.3885937,12.632953240629092
1302706.531358507,-9.724778,-0.3517575,3.1394954,10.225041410904478
1302707.687572338,-7.2959766,-0.6580497,5.8698034,9.387166553868596
1302708.843786169,-9.595561,-0.5886554,7.1212945,11.963868163783836
1302710.0,-10.1339655,-1.2443122,5.522832,11.608068009211658
1302710.9065031828,-15.223681,-1.3567789,1.7922882,15.38874943473658
1302712.062717014,-12.282797,-1.5218896,-0.15314612,12.377669563850386
1302713.218930845,-10.830302,0.17228939,-1.7851094,10.97778395738771
1302714.3751446758,-7.5113387,1.7563945,1.9143264,7.9479416373980065
1302715.531358507,-5.7693014,1.6008555,7.7243075,9.773049847948103
1302716.687572338,-9.203125,1.8951832,5.412758,10.8437621835667
1302717.843786169,-7.3821216,1.2993491,4.419701,8.701596654077823
1302719.0,-7.324692,0.7657306,7.872668,10.78036908852681
1302719.9065031828,-11.674998,0.7202653,3.9195836,12.336429629344831
1302721.062717014,-11.136594,-0.09810923,1.9502201,11.306489719638506
1302722.218930845,-16.94179,-1.1031306,0.9164838,17.002384776272383
1302723.3751446758,-13.912368,-0.67001426,-1.7061435,14.032598765681987
1302724.531358507,-6.5996404,0.19861138,4.4412374,7.957341863507966
1302725.687572338,-6.745608,1.3783151,4.7092433,8.341459840048797
1302726.843786169,-4.213911,1.5075321,3.7879734,5.863313178362467
1302728.0,-3.9219763,1.715715,6.1234517,7.471428028243301
1302728.9065031828,-7.5328746,1.4812101,6.532639,10.0803549245048
1302730.062717014,-7.9755626,0.6197632,3.3692145,8.680167714831509
1302731.218930845,-12.6082325,0.07657306,0.89734054,12.640356413183193
1302732.3751446758,-10.686728,-0.27039862,1.40703,10.782346877214716
1302733.531358507,-10.873374,0.15314612,2.6680925,11.1969832306074
1302734.687572338,-11.4046,0.78248096,0.43311638,11.439613953774264
1302735.843786169,-7.7889156,0.30150643,4.536954,9.018983531938103
1302737.0,-7.8008804,0.33022133,10.698692,13.24480243917421
1302738.9065031828,-8.875296,-0.7968384,13.261497,15.977269266190001
1302740.062717014,-14.496237,-1.1797037,5.467795,15.537997623310018
1302741.218930845,-15.673548,-1.1007377,-1.8186102,15.817050086917261
1302742.3751446758,-10.368471,-0.05025107,-2.8308103,10.74807903778453
1302743.531358507,-8.040172,2.7566302,-2.4575167,8.84775475360359
1302744.687572338,-6.2407045,3.6276486,1.586498,7.3907511746375425
1302745.843786169,-4.44363,2.6130557,10.382828,11.592110461248481
1302747.0,-4.457988,1.3950654,10.902089,11.860666467038948
1302747.9065031828,-3.275891,1.1629534,4.398165,5.606048324950255
1302749.062717014,-7.6884136,1.3208853,1.7922882,8.00429501282157
1302750.218930845,-11.332812,-0.4402951,2.8188457,11.686418556719442
1302751.3751446758,-15.553903,-2.2780485,3.9650488,16.21218725182209
1302752.531358507,-16.293312,-2.8092742,3.072494,16.816784973358185
1302753.687572338,-10.5766535,-1.7563945,3.515182,11.283041495617063
1302754.843786169,-6.980113,0.77530223,2.680057,7.517032430677745
1302756.0,-4.3096275,0.885376,7.9133472,9.054161681673245
1302756.9065031828,-5.6999073,1.7324655,6.6259627,8.910317706966168
1302758.062717014,-6.4656377,2.7662017,2.4934103,7.461463505029712
1302759.218930845,-3.512789,2.7135577,2.450338,5.070230592783162
1302760.3751446758,-6.381886,2.60827,3.3692145,7.673535538257854
1302761.531358507,-7.5376606,1.8018597,3.2495692,8.40373284230675
1302762.687572338,-11.160523,1.2419193,-0.86623275,11.262770367827537
1302763.843786169,-11.811395,0.36611494,0.31107804,11.821161598687603
1302765.0,-10.105251,-1.5386399,8.169388,13.08519815705582
1302765.9065031828,-13.285426,-1.9669704,8.04735,15.656671376076465
1302767.062717014,-9.873138,-2.0507221,3.6755068,10.732831189174583
1302768.218930845,-3.933941,-0.8566611,4.8025665,6.2669294729282266
1302769.3751446758,-4.8767467,0.15314612,9.105016,10.329928773727724
1302770.531358507,-5.592226,0.8542682,6.6163907,8.705135937344904
1302771.687572338,-11.430922,1.117488,-1.9095407,11.643071024656017
1302772.843786169,-7.391693,1.1581675,-2.4599094,7.875889259030602
1302774.0,-5.778873,1.14381,4.242626,7.259721058147138
1302775.9065031828,-9.200731,0.9212696,5.802802,10.916716523820208
1302777.062717014,-8.439787,0.95237744,2.2995846,8.79915431880514
1302778.218930845,-8.731722,1.6726427,4.2091255,9.83653598386635
1302779.3751446758,-8.966227,1.0911661,6.458459,11.103853508039414
1302780.531358507,-8.999727,0.27039862,5.21654,10.405791226996
1302781.687572338,-7.939669,-0.09332342,3.2687125,8.586706848258986
1302782.843786169,-8.49961,-0.63172776,1.6989647,8.690738240604231
1302784.0,-11.373492,-1.2921704,2.8810613,11.803666330045841
1302784.9065031828,-6.2550616,-1.9310769,9.822887,11.80440437414261
1302786.062717014,-6.5158887,-0.5072965,8.470895,10.69907553906995
1302787.218930845,-6.8915753,1.5027462,2.895419,7.624664415090381
1302788.3751446758,-6.9155045,1.7540016,3.649185,8.013568198159158
1302789.531358507,-9.724778,3.1610315,1.7803236,10.379449860854535
1302790.687572338,-6.420172,3.2878556,2.8212388,7.745191496836008
1302791.843786169,-8.59054,3.153853,1.7755378,9.321839985562821
1302793.0,-6.4106007,2.579555,1.5697477,7.086184669800864
1302793.9065031828,-5.15911,2.1296883,2.0267932,5.938002940620957
1302795.062717014,-11.55296,0.7872668,5.1184306,12.660529435335578
1302796.218930845,-14.70442,-2.2756555,7.0662575,16.472114938507033
1302797.3751446758,-14.108586,-3.8908687,8.5642185,16.95691294651765
1302798.531358507,-8.688649,-3.48886,8.068886,12.36008441823101
1302799.687572338,-4.4220943,-2.833203,9.160052,10.558811954003419
1302800.843786169,-5.415151,-0.19861138,1.7755378,5.702266331231412
1302802.0,-3.15146,1.5649619,-1.2443122,3.73217345940947
1302802.9065031828,-5.8386955,3.2974274,-0.36611494,6.715462214120649
1302804.062717014,-8.040172,2.8212388,4.113409,9.4617063871952
1302805.218930845,-11.225132,1.5936768,5.953555,12.805788195121268
1302806.3751446758,-12.414407,0.7202653,5.281148,13.51024823835362
1302807.531358507,-8.399107,-0.22732627,5.43908,10.00900928548281
1302808.687572338,-8.360821,0.4091873,3.9459054,9.254238567611678
1302809.843786169,-6.1545596,-0.14118157,5.7118716,8.397857660174195
1302811.0,-10.279933,-0.69155043,5.4510446,11.656292365624301
1302812.9065031828,-12.282797,-1.4357449,3.177782,12.768193450939293
1302814.062717014,-8.652756,-1.4812101,3.2495692,9.360762241477273
1302815.218930845,-7.7386646,-0.19861138,4.998785,9.214891629736275
1302816.3751446758,-7.42998,-0.48097453,8.904011,11.606780397122611
1302817.531358507,-10.110037,1.0624512,3.383572,10.714019328568268
1302818.687572338,-8.34407,1.5051392,2.2014754,8.759876832072573
1302819.843786169,-5.5898333,1.4907818,5.5850477,8.04123277291955
1302821.0,-7.0279713,1.9765421,5.7310147,9.281359208559499
1302821.9065031828,-7.3534064,1.4094229,4.376629,8.672597073440365
1302823.062717014,-12.213403,0.89494765,-0.35893622,12.251407239443042
1302824.218930845,-10.555118,-0.650871,4.347914,11.434093982645106
1302825.3751446758,-12.536446,-1.8736471,7.575947,14.767125810836156
1302826.531358507,-13.730507,-2.163189,4.051193,14.478203405465024
1302827.687572338,-7.805666,-1.9310769,2.864311,8.53590986374567
1302828.843786169,-5.314649,0.44747382,4.608741,7.048845325148467
1302830.0,-3.5702188,1.0265576,10.370864,11.016129215495214
1302830.9065031828,-8.542682,0.7154795,7.1236873,11.146131500041866
1302832.062717014,-7.815238,0.28475606,2.730308,8.283333434385865
1302833.218930845,-7.4586945,-0.5049036,4.5943837,8.774703007649256
1302834.3751446758,-11.0791645,-0.047858164,1.14381,11.138154144113004
1302835.531358507,-9.392164,0.13878867,-0.21057591,9.395549431070473
1302836.687572338,-9.1983385,0.8518753,5.3768644,10.688582387918412
1302837.843786169,-10.256004,0.63412064,8.535503,13.35823860009616
1302839.0,-8.774794,0.45704544,5.285934,10.254121051022208
1302839.9065031828,-6.9896846,0.69633627,3.9770133,8.072001597916811
1302841.062717014,-3.6731138,-0.09810923,6.501531,7.468018194455785
1302842.218930845,-10.588618,-0.81358874,3.2208543,11.097506936677593
1302843.3751446758,-7.922919,-1.2873845,0.75615895,8.062368181190086
1302844.531358507,-6.633141,-1.8808258,4.8025665,8.40242287692954
1302845.687572338,-4.462774,-1.5745336,10.141145,11.190993242050947
1302846.843786169,-6.8221807,-1.2467052,8.284247,10.80394241544116
1302848.0,-9.526167,0.6006199,0.46661708,9.556481228753222
1302849.9065031828,-6.042093,0.93323416,0.22014755,6.11770208181233
1302851.062717014,-7.0088277,1.9119335,2.9241338,7.831329000687686
1302852.218930845,-6.4464946,1.9932925,3.926762,7.807046011330368
1302853.3751446758,-8.104779,1.7755378,0.3828653,8.305815008535522
1302854.531358507,-9.521381,0.9547703,0.8566611,9.607400830254575
1302855.687572338,-10.825516,-1.3328499,5.1375737,12.056655798566936
1302856.843786169,-14.335913,-3.3404996,8.513967,17.00485146063494
1302858.0,-9.045193,-4.57524,10.904482,14.888118254271525
1302858.9065031828,-6.8078237,-4.314413,9.222268,12.247891660554265
1302860.062717014,-5.7740874,-2.3330853,2.9289196,6.88200133269233
1302861.218930845,-3.8645465,-0.16032484,-0.78008807,3.945752285932253
1302862.3751446758,-4.8097453,1.562569,-0.019143265,5.0572362210230954
1302863.531358507,-2.1368668,2.68245,2.8930259,4.486795803411723
1302864.687572338,-5.549154,2.995921,2.6609137,6.844641296138512
1302865.843786169,-5.283541,2.0387578,1.8592896,5.960645659860179
1302867.0,-4.840853,0.8901618,6.307706,8.000837504925608
1302867.9065031828,-7.757808,-0.36850783,9.126552,11.983878103282732
1302869.062717014,-8.415857,-1.3519931,3.280677,9.133311336269317
1302870.218930845,-9.447201,-1.5434257,0.30389932,9.577271240939037
1302871.3751446758,-6.870039,-2.029186,1.4788172,7.314501486439991
1302872.531358507,-9.554882,-1.4237803,0.57908374,9.677719687742792
1302873.687572338,-4.8576035,-0.8734115,5.211754,7.177850595272968
1302874.843786169,-5.4295087,-1.9430413,10.222504,11.736888950948517
1302876.0,-4.680528,-1.5194967,9.451987,10.656278469909836
1302876.9065031828,-5.8745894,-1.639142,7.5400534,9.697937532775097
1302878.062717014,-10.0430355,-0.021536173,-0.0071787243,10.043061156594154
1302879.218930845,-8.257926,0.36611494,-0.67240715,8.29334150666294
1302880.3751446758,-7.786523,1.3998512,2.5221252,8.303652168542797
1302881.531358507,-7.729093,2.1033661,4.1062303,9.001341834966402
1302882.687572338,-9.6912775,1.3902797,2.28762,10.054200241224477
1302883.843786169,-10.99302,0.37807947,2.5699832,11.295762322850003
1302885.0,-7.24094,-2.1368668,9.459166,12.102612660913271
1302885.9065031828,-8.214853,-2.864311,8.758043,12.344691349166208
1302887.062717014,-4.5943837,-2.6393776,3.7042217,6.464977501968459
1302888.218930845,-4.457988,-1.5984626,1.483603,4.962843696244298
1302889.3751446758,-1.6463208,-0.7896597,7.6261983,7.841736741898419
1302890.531358507,-5.6352987,-1.2132044,11.296919,12.682619415836859
1302891.687572338,-9.724778,-0.32064968,1.4381378,9.835769603765481
1302892.843786169,-6.4153867,-0.3565433,0.5431901,6.448206349059387
1302894.0,-9.554882,0.650871,2.553233,9.911528733997294
1302895.9065031828,-9.487881,1.222776,0.6652284,9.589452322239447
1302897.062717014,-8.798723,1.0313433,2.9576344,9.339635789325367
1302898.218930845,-6.8963614,1.170132,8.272284,10.83326783724514
1302899.3751446758,-5.230897,0.22732627,9.224661,10.606994448125356
1302900.531358507,-8.463716,-0.7705164,6.6474986,10.78969052792187
1302901.687572338,-5.510867,-2.3211207,8.0617075,10.037349461447167
1302902.843786169,-11.1796665,-3.5103962,4.431666,12.52786845667501
1302904.0,-8.566611,-2.763809,-0.6843717,9.027393247087605
1302904.9065031828,-4.44363,-1.6534995,3.6372204,5.975724258328559
1302906.062717014,-6.109094,-0.33740005,5.8961253,8.497008994221206
1302907.218930845,-5.879375,1.014593,2.9313123,6.647483820695262
1302908.3751446758,-4.972463,2.60827,4.44363,7.160608092625165
1302909.531358507,-3.2399976,2.0890088,10.894911,11.556843336846105
1302910.687572338,-10.717835,1.0050215,6.300527,12.473118927534374
1302911.843786169,-10.349327,-0.9404129,1.2323477,10.464780295310108
1302913.0,-13.854938,-2.7925239,2.1703677,14.299230492201968
1302913.9065031828,-11.473994,-3.4075012,6.403422,13.574513473790558
1302915.062717014,-7.968384,-3.5056105,8.250747,11.994135008710519
1302916.218930845,-7.4275866,-1.5027462,3.926762,8.535030676380607
1302917.3751446758,-2.1990826,-0.033500712,1.1557746,2.484532452058622
1302918.531358507,-0.9451987,1.3376356,3.3404996,3.7204310447136644
1302919.687572338,1.1509888,1.9047549,7.5089455,7.831802408690461
1302920.843786169,-4.9341764,1.4357449,6.917897,8.617700335170746
1302922.0,-9.475916,0.17707519,3.8501892,10.2297749993715
1302922.9065031828,-9.758279,-1.718108,3.7855806,10.606909286903578
1302924.062717014,-11.445279,-2.5963054,3.4290373,12.226753858759954
1302925.218930845,-6.9466124,-2.9863493,3.7425082,8.436828409094941
1302926.3751446758,-6.3412066,-2.1225095,7.3510137,9.93747201953603
1302927.531358507,-3.6922572,-0.96434194,10.495295,11.167539377374938
1302928.687572338,-7.9300976,-0.6101916,7.441944,10.892259280487787
1302929.843786169,-8.19571,-0.21775463,2.2708697,8.507286798819264
1302931.0,-5.209361,-0.9834852,5.465402,7.614151573783126
1302932.9065031828,-9.803744,-0.23211208,2.5819478,10.140696567649718
1302934.062717014,-5.592226,0.416366,0.89494765,5.678669173078541
1302935.218930845,-7.1284733,0.5838696,4.6039553,8.506023730452151
1302936.3751446758,-5.7812657,0.38765112,5.448652,7.953685630067217
1302937.531358507,-5.4797597,0.17228939,5.254826,7.594119191448517
1302938.687572338,-3.955477,0.442688,5.802802,7.036638545077969
1302939.843786169,-4.371843,-0.7633377,4.766673,6.512823285628077
1302941.0,-7.597483,-1.586498,4.0488005,8.753942501986934
1302941.9065031828,-9.0571575,-3.2902486,4.187589,10.506842506791905
1302943.062717014,-13.20646,-4.3048415,2.6465564,14.1402442287997
1302944.218930845,-8.693435,-4.9317837,8.423037,13.070801615286635
1302945.3751446758,-10.119608,-4.819317,11.12463,15.792076337741436
1302946.531358507,-6.1354165,-3.543897,10.098072,12.335866394066743
1302947.687572338,-5.3002915,-2.1512244,7.0901866,9.109972690790416
1302948.843786169,-4.898283,0.89734054,-0.7418015,5.0347458583545945
1302950.0,-1.9861137,2.5867336,-0.20100428,3.267451769693773
1302950.9065031828,-5.4510446,3.172996,5.156717,8.14699460324445
1302952.062717014,-4.264162,2.5580187,6.5757113,8.244180755705285
1302953.218930845,-8.451752,1.1773108,4.974856,9.877619389814361
1302954.3751446758,-6.5972476,-0.2656128,3.7401154,7.588325853608737
1302955.531358507,-6.5781045,-2.3618002,5.709479,9.024838472187815
1302956.687572338,-5.049036,-2.9121692,7.0686507,9.161840246224289
1302957.843786169,-3.699436,-2.9863493,4.730779,6.707039496420719
1302959.0,-5.123216,-2.3091564,3.5510757,6.64753218039954
1302959.9065031828,-5.099287,-2.4623024,7.3390493,9.269698249956427
1302961.062717014,-7.2146177,-2.9337053,10.973877,13.456719947874756
1302962.218930845,-9.236626,-3.670721,12.06265,15.630002480684928
1302963.3751446758,-13.527109,-3.0270288,1.9191123,13.993876277640934
1302964.531358507,-12.955204,-1.6798215,-3.3237493,13.479852386533347
1302965.687572338,-7.4012647,-0.7944455,2.6513422,7.901865493251399
1302966.843786169,-5.8937325,0.9140909,8.57379,10.444209875290666
1302968.0,-4.7953877,1.7133222,5.709479,7.650448784598531
1302969.9065031828,-5.111252,1.2586696,4.094266,6.668745027981214
1302971.062717014,-1.2347406,0.069394335,8.238783,8.331083077494032
1302972.218930845,-6.214382,-1.8281817,6.276598,9.019782393369747
1302973.3751446758,-7.6118407,-2.9337053,4.424487,9.280238727672558
1302974.531358507,-8.547467,-3.9004402,5.1950035,10.735953019405278
1302975.687572338,-11.0672,-3.9219763,3.2495692,12.182959982013827
1302976.843786169,-8.188532,-3.4027152,3.2711053,9.451489667297063
1302978.0,-5.5084743,-1.5242825,7.3581924,9.31717347960123
1302978.9065031828,-0.8997334,-0.33979294,12.849916,12.885857388633688
1302980.062717014,-6.044486,0.38765112,7.3199058,9.500900237130526
1302981.218930845,-4.527382,0.15075321,1.849718,4.892992027765149
1302982.3751446758,-6.2048106,-0.57908374,4.070337,7.443296034242744
1302983.531358507,-8.679078,-0.5910483,2.8978117,9.169135492055606
1302984.687572338,-7.4658732,-1.2371335,5.2380757,9.203651393562827
1302985.843786169,-9.636241,-1.0959519,5.343364,11.072930507037901
1302987.0,-6.750394,-1.1820966,4.7977805,8.365636213292317
1302988.9065031828,-5.2739697,0.31825677,4.264162,6.789633372312008
1302990.062717014,-2.395301,0.35415038,5.7693014,6.256814526282292
1302991.218930845,-3.4266443,0.2632199,4.5465255,5.699304343218456
1302992.3751446758,-5.9439836,-0.21057591,3.3357139,6.819257325661973
1302993.531358507,-11.292133,-2.4479449,3.2304258,11.997514441434552
1302994.687572338,-15.058571,-4.8073525,5.436687,16.716122880538606
1302995.843786169,-10.981055,-6.7719297,13.517538,18.68599567473489
1302997.0,-11.0791645,-6.0732007,10.736979,16.58054193345265
1302997.9065031828,-4.166053,-3.9411197,8.265104,10.059839274031821
1302999.062717014,-5.178253,-1.5817122,5.932019,8.031498430056427
1303000.218930845,-3.0605295,0.83991075,0.87819725,3.292950242296925
1303001.3751446758,-5.223718,2.680057,0.40679437,5.885186226980136
1303002.531358507,-6.0301285,3.0581365,4.1469097,7.931677542556719
1303003.687572338,-8.7556505,1.9813279,6.8054304,11.265032572288144
1303004.843786169,-10.780051,0.885376,3.9674416,11.521023525424622
1303006.0,-7.0638647,-1.4118158,4.3862004,8.433869948131514
1303006.9065031828,-5.6376915,-2.5316968,9.930569,11.69654884143453
1303008.062717014,-4.630277,-2.9193478,8.511574,10.11973066003092
1303009.218930845,-6.24549,-2.6417706,4.0775156,7.912725871112162
1303010.3751446758,-3.7305436,-2.2230117,4.2665553,6.087875713070688
1303011.531358507,-6.798252,-2.6154485,7.5879116,10.518231959843384
1303012.687572338,-7.106937,-2.0937946,9.341913,11.923249047492346
1303013.843786169,-10.224896,-2.835596,10.478544,14.91271226993829
1303015.0,-11.529031,-1.433352,3.802331,12.224188103445806
1303015.9065031828,-7.341442,-1.6056414,7.154795,10.376220238448246
1303017.062717014,-8.315355,0.7657306,4.8264956,9.64502627806792
1303018.218930845,-6.8891826,1.6008555,1.8927903,7.321627575054408
1303019.3751446758,-7.5209103,1.354386,4.0176926,8.63367285723387
1303020.531358507,-5.472581,0.34936458,7.8630958,9.586421332869593
1303021.687572338,-7.942062,-1.5601761,6.819788,10.583950426934132
1303022.843786169,-10.84466,-3.7114005,3.8980472,12.106854098419955
1303024.0,-13.160995,-6.3675284,6.0277357,15.814259545861958
1303025.9065031828,-12.199045,-7.753022,10.710656,17.990113979484537
1303027.062717014,-7.312727,-7.5113387,13.716149,17.263514376651344
1303028.218930845,-6.5924616,-3.8382246,5.790838,9.577386009228391
1303029.3751446758,-1.5171037,-0.78248096,1.8927903,2.548830164818814
1303030.531358507,-2.0172215,0.8614469,6.070808,6.4549192957345225
1303031.687572338,-1.5434257,1.6319634,7.602269,7.927166037034991
1303032.843786169,-7.1021514,2.5436614,3.0126712,8.12323553676005
1303034.0,-8.535503,1.6582853,4.5417395,9.80979710723241
1303034.9065031828,-9.664956,-0.9786994,8.7556505,13.077868430124484
1303036.062717014,-10.760908,-2.187118,9.317985,14.40157875340801
1303037.218930845,-8.908797,-3.6348274,9.696064,13.659878890645253
1303038.3751446758,-12.610625,-3.3117847,3.8358316,13.590783084625318
1303039.531358507,-6.767144,-3.6731138,3.0366004,8.276892224365774
1303040.687572338,-7.037543,-3.0270288,4.55849,8.914580523668988
1303041.843786169,-5.017928,-2.3235137,6.874825,8.822785053932613
1303043.0,-6.587676,-1.4620669,4.7020645,8.224629186973226
1303043.9065031828,-7.5831256,-1.3376356,5.573083,9.505383579248747
1303045.062717014,-7.1906886,-2.988742,8.592933,11.596425260709568
1303046.218930845,-11.950183,-3.6061125,7.1236873,14.37212029744834
1303047.3751446758,-8.138281,-4.457988,9.05955,12.968450980961642
1303048.531358507,-10.531189,-4.6470275,11.4716015,16.251106033568284
1303049.687572338,-9.035621,-3.8908687,6.0325212,11.54004411277228
1303050.843786169,-12.206224,-2.9217408,0.2991135,12.55459846137832
1303052.0,-9.071514,-2.6106627,2.0483294,9.659377791362736
1303052.9065031828,-10.54076,-2.2206187,4.9772487,11.866413670947148
1303054.062717014,-6.8532887,-1.5242825,7.822417,10.51100427491317
1303055.218930845,-4.8217096,-2.1512244,10.492902,11.746388477633946
1303056.3751446758,-6.307706,-1.6223917,6.5924616,9.267138703944138
1303057.531358507,-3.5845764,-3.2830698,9.806137,10.944773096865827
1303058.687572338,-8.88726,-3.1610315,6.202418,11.289176209906383
1303059.843786169,-5.601798,-3.1490672,2.2589052,6.811711808753134
1303061.0,-9.966462,-2.5891266,2.7997024,10.671095298835885
1303061.9065031828,-6.4106007,-2.2421548,7.2481184,9.932687442098542
1303063.062717014,-10.179431,-2.21344,7.106937,12.610657621207944
1303064.218930845,-9.356271,-0.9547703,0.28954187,9.409316013700792
1303065.3751446758,-5.802802,-2.0746512,3.8621538,7.272751929477581
1303066.531358507,-5.7142644,-2.3976939,11.325634,12.910140943195028
1303067.687572338,-5.1686816,-2.6944146,9.406522,11.066065048397093
1303068.843786169,-7.8248096,-2.8834543,5.2978983,9.879761149622167
1303070.0,-7.049507,-3.955477,4.7762446,9.389028688826505
1303071.9065031828,-13.309355,-5.4869385,6.221561,15.682896604120307
1303073.062717014,-9.384986,-5.8745894,10.894911,15.533442906732216
1303074.218930845,-13.960226,-5.963127,9.798959,18.06838097541908
1303075.3751446758,-9.959284,-4.8647823,7.4850163,13.374562184621782
1303076.531358507,-10.811159,-3.5247536,5.754944,12.744584234376967
1303077.687572338,-9.164838,-0.84708947,-0.028714897,9.203947016456505
1303078.843786169,-5.5754757,-0.10289505,1.8592896,5.8782203505204835
1303080.0,-3.6563635,-0.28475606,7.686021,8.516161040649711
1303080.9065031828,-1.2873845,-0.9571632,11.385457,11.497919435320615
1303082.062717014,-5.821945,-2.029186,6.870039,9.230930357615206
1303083.218930845,-7.0686507,-4.323985,6.43453,10.491227064539949
1303084.3751446758,-13.524716,-6.381886,6.9848986,16.505611780541003
1303085.531358507,-15.065749,-7.3222985,2.524518,16.940072000627012
1303086.687572338,-12.53166,-6.645106,2.8284173,14.463743655422524
1303087.843786169,-5.0155354,-3.771223,10.354114,12.107245557490693
1303089.0,-1.5553902,-1.6630712,15.020284,15.19190494741135
1303089.9065031828,-1.0217718,0.019143265,9.949712,10.002057436288501
1303091.062717014,-2.8475606,-0.30629224,8.159817,8.647833820121983
1303092.218930845,-10.837481,-1.014593,-0.36372203,10.89094518837173
1303093.3751446758,-8.037778,-2.4646955,2.2421548,8.701026217186527
1303094.531358507,-10.859017,-2.9624202,8.707792,14.230946038929423
1303095.687572338,-10.452223,-2.603484,6.7838945,12.729820075991462
1303096.843786169,-10.179431,-1.3567789,4.0416217,11.036139290220882
1303098.0,-5.448652,-0.58626246,6.506317,8.506684030431497
1303098.9065031828,-4.108623,-1.4883888,8.25314,9.338651082233152
1303100.062717014,-5.2476473,-2.6250203,6.944219,9.09124365972942
1303101.218930845,-7.9755626,-5.1375737,5.831517,11.1360160214836
1303102.3751446758,-10.416329,-6.999256,5.173467,13.574028701526528
1303103.531358507,-10.5766535,-8.250747,10.241647,16.876959400012797
1303104.687572338,-13.5534315,-8.126316,11.14138,19.335533751656513
1303105.843786169,-11.773108,-6.568533,7.729093,15.539967064135046
1303107.0,-9.195946,-3.1586387,5.977484,11.41370825990877
1303108.9065031828,-4.7714586,-1.0624512,8.994942,10.237411846128854
1303110.062717014,-8.44218,0.17228939,6.6259627,10.73328786943208
1303111.218930845,-1.74443,0.50968945,4.2115183,4.586905901757326
1303112.3751446758,-2.2493336,0.5647263,4.4723454,5.037885550000298
1303113.531358507,-3.8430104,-0.2680057,6.381886,7.45446342178541
1303114.687572338,-5.204575,-2.471874,10.811159,12.250670223533977
1303115.843786169,-13.608468,-4.23784,8.463716,16.576615387384724
1303117.0,-12.22776,-5.654442,2.1536174,13.642906466532224
1303117.9065031828,-8.951869,-5.29072,3.7137933,11.041736158172133
1303119.062717014,-4.8073525,-3.9650488,7.836774,10.012356204845775
1303120.218930845,-6.9609694,-3.9147975,10.691513,13.345005982872829
1303121.3751446758,-6.475209,-4.115802,8.013849,11.09459028047841
1303122.531358507,-7.5711613,-5.068179,7.91574,12.069294161393975
1303123.687572338,-4.268948,-5.21654,9.9927845,12.053710991298251
1303124.843786169,-10.040643,-5.5898333,11.5218525,16.27310152389501
1303126.0,-12.309119,-4.0488005,2.677664,13.231669605225838
1303126.9065031828,-10.751336,-3.0629225,1.9095407,11.341034596140634
1303128.062717014,-10.263183,-0.7418015,5.5587254,11.695410331813775
1303129.218930845,-8.63122,-0.32064968,6.5206747,10.822198180078953
1303130.3751446758,-10.349327,-1.328064,5.8171597,11.946198990320273
1303131.531358507,-4.0559793,-3.491253,7.0686507,8.865982083821734
1303132.687572338,-7.3557997,-5.388829,6.956184,11.468904178674487
1303133.843786169,-1.7085364,-6.7336435,11.713285,13.618446934450427
1303135.0,-7.7386646,-7.5376606,10.964305,15.39218117243656
1303135.9065031828,-9.085872,-6.606819,2.7446656,11.564441904171959
1303137.062717014,-9.52856,-5.0657864,0.51926106,10.803947406964609
1303138.218930845,-6.2789907,-2.5699832,7.0399356,9.777076818309043
1303139.3751446758,-5.3744717,-1.6343563,14.108586,15.185791566093833
1303140.531358507,-8.561825,-0.33740005,6.0061994,10.463895897653291
1303141.687572338,-3.3931437,-1.3089207,3.541504,5.0763124558831265
1303142.843786169,-8.676684,-1.7635733,3.8214743,9.643583454602826
1303144.0,-5.4558306,-2.603484,4.400558,7.477240613054816
1303145.9065031828,-10.82073,-4.4412374,8.980584,14.746649665504187
1303147.062717014,-8.049743,-5.5060816,10.117215,14.052520638950599
1303148.218930845,-10.4354725,-6.5996404,11.220346,16.683839608054388
1303149.3751446758,-6.1856675,-5.652049,8.834617,12.176148728380673
1303150.531358507,-5.977484,-5.4295087,9.258162,12.285090285051865
1303151.687572338,-8.38475,-3.5247536,1.3735292,9.198614187281995
1303152.843786169,-9.4998455,-2.9624202,-1.1940612,10.02241388661353
1303154.0,-10.784837,-2.3282995,1.8425392,11.186091291501508
1303154.9065031828,-9.33952,-3.852582,12.802058,16.308332561377576
1303156.062717014,-14.213874,-5.90809,13.821437,20.68748081040669
1303157.218930845,-9.705635,-6.463245,6.5230675,13.361261029289347
1303158.3751446758,-7.997099,-5.6352987,2.7973096,10.175221120559241
1303159.531358507,-1.6941789,-5.0705724,7.5687685,9.266455806587501
1303160.687572338,-6.9968634,-5.384043,11.225132,14.281022543275133
1303161.843786169,-5.3577213,-4.582419,5.077751,8.688342571401964
1303163.0,-8.181353,-3.5702188,2.450338,9.256627652915853
1303163.9065031828,-5.659228,-2.8164527,5.8386955,8.605209614474335
1303165.062717014,-8.198103,-3.3333209,8.750865,12.445784799248733
1303166.218930845,-9.885103,-2.318728,4.5489182,11.125844581373778
1303167.3751446758,-7.030364,-3.0677083,4.5393467,8.913053385298765
1303168.531358507,-6.7216787,-3.2615337,8.066493,10.994856794943642
1303169.687572338,-3.2136755,-3.7401154,8.734115,10.030001907170426
1303170.843786169,-9.966462,-4.685314,7.934883,13.573684109324521
1303172.0,-8.44218,-6.3603497,8.277069,13.425137715846757
1303172.9065031828,-15.996591,-7.441944,5.0322857,18.346589696367047
1303174.062717014,-8.774794,-6.144988,2.9600272,11.113939368528147
1303175.218930845,-7.0183992,-4.625491,8.001884,11.60531093383963
1303176.3751446758,-4.5393467,-2.1799393,8.87051,10.200183894155309
1303177.531358507,-9.748708,-2.163189,8.932726,13.39814495033029
1303178.687572338,-9.703242,-2.9360983,3.771223,10.816455124187216
1303179.843786169,-8.6048975,-4.6470275,4.9317837,10.952699029684336
1303181.0,-6.4417086,-4.836067,7.348621,10.90345744786689
1303182.9065031828,-10.038249,-4.9772487,7.4036574,13.429578939945491
1303184.062717014,-13.974584,-6.09713,5.671192,16.267341851415676
1303185.218930845,-12.555589,-7.480231,8.951869,17.13862974521134
1303186.3751446758,-12.388085,-6.645106,6.848503,15.637265651624327
1303187.531358507,-4.785816,-5.0131426,3.0437791,7.569691190754585
1303188.687572338,-3.6515777,-3.35725,4.8599963,6.944401435519909
1303189.843786169,3.3500714,-2.9313123,12.22776,13.01282770203422
1303191.0,-2.8834543,-3.3022132,13.005455,13.72445920520979
1303191.9065031828,-1.1342385,-3.7042217,9.853995,10.588152475179895
1303193.062717014,-10.117215,-3.7305436,5.4199367,12.068583543222164
1303194.218930845,-13.704185,-2.5604117,-4.1780176,14.55390757335059
1303195.3751446758,-13.0509205,-2.811667,-2.6896286,13.618593878302827
1303196.531358507,-8.401501,-3.0150642,8.408679,12.263022209396981
1303197.687572338,-6.7145,-3.4553592,14.230624,16.110079977467542
1303198.843786169,-9.672134,-3.6731138,8.23639,13.224222522848232
1303200.0,-4.058372,-6.034914,9.483095,11.950718014278682
1303200.9065031828,-6.831753,-7.9277043,10.54076,14.853584277838381
1303202.062717014,-7.288798,-7.2529044,3.699436,10.92780971825733
1303203.218930845,-11.51228,-5.412758,-0.9691278,12.758124809614337
1303204.3751446758,-7.9564195,-5.0825367,7.1212945,11.825803394381179
1303205.531358507,-13.077243,-4.4364514,9.461558,16.73969728797313
1303206.687572338,-7.736272,-3.2232473,5.5635114,10.059417811825456
1303207.843786169,-4.9892135,-2.1464386,4.792995,7.243773262753136
1303209.0,-1.3328499,-2.2612982,10.4259,10.751248728182846
1303209.9065031828,-7.9133472,-4.7523155,14.120551,16.86995930827603
1303211.062717014,-10.973877,-6.43453,4.338342,13.440623647769957
1303212.218930845,-12.323477,-6.7360363,0.004785816,14.044297537024823
1303213.3751446758,-6.3100986,-5.805195,6.2383113,10.603497593032907
1303214.531358507,-5.0083566,-5.1184306,10.837481,12.989725249794198
1303215.687572338,-6.5278535,-2.5436614,5.0203214,8.61897392933812
1303216.843786169,-2.627413,-1.823396,2.1225095,3.8383744766470156
1303218.0,-3.3979294,-2.2254045,6.0397,7.278483735367183
1303218.9065031828,0.13400285,-2.6513422,8.994942,9.378515543979919
1303220.062717014,-5.7358007,-3.9626558,11.110272,13.116409362831664
1303221.218930845,-5.747765,-4.680528,6.389065,9.785923381481894
1303222.3751446758,-12.866667,-6.511103,7.836774,16.41220913504864
1303223.531358507,-8.595325,-6.0253425,6.793466,12.50342130742971
1303224.687572338,-8.906404,-5.4295087,10.854231,15.053834313421705
1303225.843786169,-8.999727,-2.1823323,3.2950344,9.82928848082788
1303227.0,-6.551782,-0.9834852,-0.6006199,6.65235558117717
1303228.9065031828,-4.6470275,-0.30389932,3.984192,6.128703392669343
1303230.062717014,-3.8956544,-1.3663505,8.860939,9.775442540100709
1303231.218930845,-7.9205256,-4.039229,8.719757,12.453283054429678
1303232.3751446758,-10.272755,-6.537425,7.0662575,14.078331434405012
1303233.531358507,-14.134908,-8.432608,5.199789,17.261005402196275
1303234.687572338,-11.203596,-9.432844,8.789151,17.080640636707777
1303235.843786169,-12.146401,-9.365842,11.361527,19.08764913218739
1303237.0,-7.8487387,-7.5161242,5.4821525,12.171639914323771
1303237.9065031828,-5.025107,-4.3909864,3.723365,7.641721589384094
1303239.062717014,3.720972,-2.6489491,10.897304,11.815828300529372
1303240.218930845,-1.4477094,-1.4166015,10.897304,11.083945903200116
1303241.3751446758,0.31825677,-0.95955616,5.5898333,5.680516853036673
1303242.531358507,-5.747765,-1.1150951,5.7118716,8.179591478316969
1303243.687572338,-9.861175,-0.8279462,0.9834852,9.944622186354716
1303244.843786169,-9.858782,-1.8640754,1.7946811,10.192705228304524
1303246.0,-8.89444,-2.8068812,8.31057,12.492206318717821
1303246.9065031828,-8.013849,-3.9100118,8.717364,12.470060271684185
1303248.062717014,-9.650599,-4.824103,7.4132295,13.090531021814213
1303249.218930845,-3.7831876,-6.817395,11.79943,14.14269887000776
1303250.3751446758,-9.066729,-8.334499,11.395028,16.778441866312438
1303251.531358507,-7.0734363,-7.922919,6.2789907,12.338228024372267
1303252.687572338,-12.861881,-6.5781045,4.020086,14.995350383318065
1303253.843786169,-8.729329,-4.5895977,4.087087,10.675667285170295
1303255.0,-10.035856,-2.94567,6.214382,12.16609719850865
1303255.9065031828,-6.953791,-0.89734054,4.0966587,8.120532114381064
1303257.062717014,-6.1880603,-0.8614469,5.317042,8.203969567698293
1303258.218930845,-1.9669704,-1.7994668,8.533111,8.939856635153575
1303259.3751446758,-4.2282686,-4.213911,11.588854,13.035982444870925
1303260.531358507,-5.83391,-6.432137,8.612076,12.230075441494423
1303261.687572338,-13.924333,-8.805902,5.7645154,17.45452942148055
1303262.843786169,-12.897775,-9.313198,6.0732007,17.02856493308551
1303264.0,-11.213167,-9.0428,10.07175,17.576902288867313
1303265.9065031828,-11.1007,-6.269419,4.051193,13.376969754425327
1303267.062717014,-5.6831565,-3.6563635,0.5288327,6.778416177265438
1303268.218930845,-1.6870002,-1.1605604,7.4036574,7.681602242593856
1303269.3751446758,1.2179902,-0.4977249,13.6036825,13.667165315608877
1303270.531358507,-3.773616,-0.64369226,7.757808,8.65090182616263
1303271.687572338,-2.2086542,-2.7518444,7.032757,7.86832078642184
1303272.843786169,-12.311512,-4.682921,5.333792,14.210996232412738
1303274.0,-11.81618,-5.123216,1.5194967,12.968358500456674
1303274.9065031828,-13.0581,-5.0945015,5.2428617,14.965143499105817
1303276.062717014,-9.698457,-4.218697,6.8891826,12.622135693090957
1303277.218930845,-10.67237,-3.048565,5.853053,12.547966345066998
1303278.3751446758,-5.4558306,-1.7013576,3.4457877,6.673391798212165
1303279.531358507,-1.9932925,-2.1272953,5.678371,6.382984999010992
1303280.687572338,-0.50968945,-2.885847,6.826967,7.429358967093951
1303281.843786169,-5.305077,-4.950927,7.1141157,10.16199598151094
1303283.0,-10.452223,-7.3510137,6.046879,14.13687071808884
1303283.9065031828,-15.235646,-9.119372,8.681471,19.76501437984655
1303285.062717014,-16.348349,-9.638634,7.3199058,20.340914466479393
1303286.218930845,-10.777658,-8.781973,6.0875583,15.176934070937776
1303287.3751446758,-8.188532,-5.4749737,5.7166576,11.388923015208832
1303288.531358507,-0.46901,-2.627413,8.348856,8.76508219935244
1303289.687572338,-2.8738825,-1.5003533,7.1906886,7.8877286458648594
1303290.843786169,1.1366314,-0.4091873,5.5515466,5.681464145615882
1303292.0,-6.432137,-0.1483603,4.7547083,8.000103010803922
1303292.9065031828,-6.0684147,-0.8566611,2.1823323,6.505543749684002
1303294.062717014,-10.619726,-2.5675905,4.788209,11.928874495041317
1303295.218930845,-10.725014,-3.6348274,4.943748,12.356315786491164
1303296.3751446758,-9.822887,-4.718815,5.2189326,12.082780371352314
1303297.531358507,-4.036836,-4.3646646,6.8867893,9.098033239331656
1303298.687572338,-1.8066456,-4.448416,9.758279,10.875494576105327
1303299.843786169,-2.445552,-4.692493,6.6355343,8.487080215611815
1303301.0,-8.265104,-5.879375,5.2428617,11.417819114295332
