timestamp,accel_x,accel_y,accel_z,magnitude
7660491.8804902965,-3.8980472,4.2306614,7.903775,9.775629243455523
7660528.0,-3.9913707,6.4488873,9.081086,11.8315388015387
7660563.8804902965,-9.0475855,0.54079723,4.4603806,10.101794895989636
7660600.0,-6.6020336,-1.4644598,2.0483294,7.065914200742134
7660635.8804902965,-8.23639,-0.22014755,-5.154324,9.718726309185119
7660672.0,-11.33042,-2.1966896,-3.177782,11.970888062907955
7660708.8804902965,-11.433315,3.6515777,0.94280577,12.03925223210759
7660745.0,-10.990627,3.3165705,-2.1440456,11.678632337284988
7660780.8804902965,-10.619726,1.7898953,-1.7037506,10.903443107892041
7660817.0,-6.6163907,-0.39482984,1.5697477,6.811506759833408
7660852.8804902965,-15.317005,1.1055236,-3.0126712,15.649569079035096
7660889.0,-14.46513,22.349762,5.620941,27.209315042812545
7660924.8804902965,-10.299076,4.245019,-2.8188457,11.490737306393592
7660961.0,-14.534524,0.5001178,-4.816924,15.320093424722605
7660997.8804902965,-3.7114005,2.603484,-2.603484,5.2278821283491315
7661034.0,-8.518753,-0.32064968,-2.7997024,8.972753335563107
7661069.8804902965,-14.328733,-1.3400285,-8.942298,16.943227534531466
7661106.0,-25.405506,-19.334698,26.24063,41.32603228794339
7661141.8804902965,-24.790527,-32.00036,63.660927,75.44075089476945
7661178.0,-29.669668,-33.905113,8.681471,45.88260918362026
7661213.8804902965,2.1009734,-40.619614,-18.791508,44.80499864580477
7661250.0,78.32467,38.135777,-78.36774,117.1776177036819
7661285.8804902965,58.071095,-14.426843,-61.502525,85.80761303533212
7661322.0,-11.122237,-57.322113,-48.03763,75.61178936307378
7661357.8804902965,-25.453363,-78.40124,-20.088463,84.84205600555505
7661394.0,4.6230984,-78.40124,78.40124,110.97243759551867
7661429.8804902965,-1.3950654,-72.16054,26.63546,76.9320314951677
7661466.0,-46.11852,-55.496323,-19.906603,74.85340738076215
7661502.8804902965,-10.0932865,-42.299435,-47.66673,64.52312595173305
7661539.0,18.815435,4.8217096,-74.350044,76.8452895141133
7661574.8804902965,69.02344,26.147306,-61.938034,96.35474527119248
7661611.0,23.333246,-15.915232,-55.201996,62.008026423152316
7661646.8804902965,-21.086306,-54.4243,-36.5421,68.86190386291709
7661683.0,-9.614705,-78.40124,17.360548,80.87388708745814
7661718.8804902965,52.919163,-78.40124,78.40124,122.85742419445302
7661755.0,-2.7015932,-61.82796,31.014482,69.22350278126794
7661791.8804902965,-29.59788,-58.626247,-8.580969,66.23220037699465
7661828.0,27.77927,-56.7526,-44.218548,77.1221462079551
7661863.8804902965,57.142647,13.318927,-78.36774,97.89881815070873
7661900.0,68.81046,7.341442,-65.90787,95.56476078548967
7661935.8804902965,-22.289938,-53.30203,-52.287434,77.92254803629756
7661972.0,-29.413626,-76.67356,-11.296919,82.89521443626306
7662007.8804902965,0.83991075,-78.40124,63.653748,100.99138338518325
7662044.0,44.201797,-78.40124,58.21467,107.189090371995
7662080.8804902965,-18.51393,-69.21487,1.5051392,71.66400265944665
7662117.0,-36.53492,-65.89351,-27.858236,80.32954843989972
7662152.8804902965,8.734115,-30.143463,-78.36774,84.41810113460971
7662189.0,78.32227,47.468117,-78.36774,120.5367279387747
7662224.8804902965,33.503105,-2.2924058,-46.510956,57.36708287011668
7662261.0,-9.664956,-43.615536,-21.014519,49.36938690981075
7662296.8804902965,-27.48255,-78.40124,3.4553592,83.15037279075257
7662333.0,-0.25364825,-78.40124,78.40124,110.87638704661119
7662369.8804902965,-8.609683,-70.10503,41.828033,82.08791760856452
7662406.0,-40.45929,-52.844982,-5.3577213,66.77013889017229
7662441.8804902965,-32.8642,-49.614555,-36.293236,69.70551404903145
7662478.0,17.331833,16.199987,-78.36774,81.88000175041313
7662513.8804902965,62.639156,46.829212,-78.36774,110.71649214837363
7662550.0,-1.1868824,-29.578737,-78.36774,83.77238832129711
7662586.8804902965,-38.544964,-78.40124,-39.87542,96.03394089318265
7662623.0,-0.99305683,-78.40124,43.87397,89.8480152199597
7662658.8804902965,37.606945,-78.40124,72.46922,113.19374803044127
7662695.0,-15.829087,-73.53167,7.910954,75.63101005164869
7662730.8804902965,-50.327644,-63.85236,-24.97239,85.05066660804273
7662767.0,0.45465255,-47.1355,-78.36774,91.45198052474764
7662802.8804902965,78.32227,61.356556,-78.36774,126.65112559642586
7662839.0,13.192102,-7.760201,-78.36774,79.84832463769295
7662875.8804902965,-48.42528,-78.40124,-57.216824,108.46901458602349
7662912.0,-9.552489,-78.40124,11.284955,79.78317296889581
7662947.8804902965,61.528847,-78.40124,78.40124,126.80421081424942
7662984.0,-0.3254355,-66.350555,17.76495,68.68839425678246
7663019.8804902965,-34.36455,-58.059128,-6.793466,67.80808079510908
7663056.0,-13.462501,-40.018993,-31.387775,52.611321532153845
7663091.8804902965,-18.107136,-7.7984877,-48.497066,52.35121961461741
7663128.0,47.482475,28.28896,-75.38139,93.47301561594836
7663164.8804902965,22.012362,18.738863,-74.63241,80.03552767215264
7663201.0,-29.274837,-32.24444,-56.080193,71.00498601652858
7663236.8804902965,-53.127346,-73.90975,-15.929589,92.40626517598868
7663273.0,15.276325,-78.40124,23.172922,83.16913401654071
7663308.8804902965,64.15387,-78.40124,44.32862,110.5780268435773
7663345.0,-3.878904,-60.679363,15.766871,62.814211858922704
7663380.8804902965,-40.708153,-52.32572,0.34218585,66.29669513139964
7663417.0,-28.970938,-43.28292,-31.426062,60.83028674232999
7663453.8804902965,1.8042527,-9.215089,-65.26657,65.93859531904117
7663490.0,77.79344,23.87165,-75.02245,110.67991229106843
7663525.8804902965,40.602863,-6.482388,-78.36774,88.4992458198764
7663562.0,-40.495182,-64.953094,-78.36774,109.5457295292407
7663597.8804902965,-50.263035,-78.40124,-48.84404,105.16114950146952
7663634.0,-13.414642,-78.40124,33.864437,86.44944850519714
7663670.8804902965,33.847687,-78.40124,75.83844,114.20984778214692
7663707.0,-13.663506,-66.76214,5.3266134,68.35384073996644
7663742.8804902965,-56.178303,-59.7557,-18.597681,84.0988653254464
7663779.0,-32.19179,-34.43634,-72.98609,86.88579969988076
7663814.8804902965,7.037543,-28.56893,-57.30297,64.41537971356414
7663851.0,78.32227,52.821053,-78.36774,122.74340833906035
7663886.8804902965,12.132044,-18.518715,-65.21392,68.86933031934869
7663923.0,-40.933086,-49.667202,-63.577175,90.46770509398823
7663959.8804902965,-36.324345,-72.170105,-34.685204,87.92636391840429
7663996.0,7.6644845,-78.40124,37.839054,87.3916057971431
7664031.8804902965,60.219925,-78.40124,38.054417,105.93079086721252
7664068.0,2.7207365,-72.01696,8.992549,72.62720476695652
7664103.8804902965,-11.148559,-67.11868,-18.853724,70.60219884243732
7664140.0,-14.579989,-58.98279,-24.544058,65.52828685790271
7664175.8804902965,7.5711613,-58.24817,-33.043667,67.39477517275658
7664212.0,12.158366,-40.0166,-50.93544,65.90579024140106
7664248.8804902965,22.993454,-13.938689,-70.56207,75.51153355993863
7664285.0,39.36573,13.735292,-60.047634,73.10292260748622
7664320.8804902965,11.560139,5.080144,-36.936928,39.03564175003712
7664357.0,9.770244,6.8867893,-66.88896,67.94864608337483
7664392.8804902965,15.929589,-32.591408,-63.668106,73.27741400157774
7664429.0,-22.371298,-78.40124,-78.24091,112.9994221461796
7664464.8804902965,-4.6781354,-78.40124,-47.259933,91.66319136667032
7664501.0,60.801403,-78.40124,25.240395,102.37500954853208
7664536.8804902965,78.32467,-78.40124,19.832422,112.58256226668757
7664573.0,4.1469097,-78.40124,8.250747,78.94318285739158
7664608.8804902965,-52.352043,-78.40124,-9.853995,94.78708803034027
7664645.0,-20.887695,-78.40124,-78.36774,112.80316001184642
7664680.8804902965,49.51645,17.22176,-78.36774,94.28664015017027
7664717.0,45.919907,21.11502,-78.36774,93.25226324972841
7664753.8804902965,-32.218113,-78.40124,-78.36774,115.43943828486853
7664790.0,-35.58733,-78.40124,-78.26245,116.353872174797
7664825.8804902965,15.226074,-78.40124,14.455558,81.16372909177129
7664862.0,78.32467,-76.19977,17.401228,110.6524360986679
7664897.8804902965,27.12122,-78.40124,7.9013824,83.33514775685606
7664934.0,-29.08819,-78.40124,-13.790329,84.75287844635096
7664969.8804902965,-12.751807,-78.40124,-42.12954,89.91251946149907
7665006.0,17.27201,-65.807365,-78.36774,103.78070288059783
7665042.8804902965,78.32467,27.592623,-78.36774,114.18235173325442
7665079.0,46.353024,-3.7281508,-65.88633,80.64434526487902
7665114.8804902965,2.3235137,-33.089134,-58.80332,67.51385004431641
7665151.0,-26.357883,-69.65516,-66.18545,99.63479865272869
7665186.8804902965,-30.851765,-78.40124,-49.217335,97.57526275473231
7665223.0,78.27681,-78.40124,49.30587,121.26451349743915
7665258.8804902965,72.07678,-63.668106,-17.063828,97.67222820643143
7665295.0,-14.716385,-78.40124,8.025814,80.17318823252835
7665331.8804902965,-30.768013,-78.40124,-23.02217,87.3123437379542
7665368.0,21.316025,-78.40124,-78.36774,112.88325840462714
7665403.8804902965,55.560932,31.591173,-78.36774,101.12626784832986
7665440.0,30.89723,-1.6343563,-75.33832,81.44429017807602
7665475.8804902965,-15.1327505,-42.833054,-54.632484,71.0519455094118
7665512.0,-35.120712,-76.2213,-44.40041,94.9449703420094
7665547.8804902965,-13.132279,-78.40124,-10.167466,80.14105408673258
7665584.0,78.32467,-78.40124,55.910297,124.12682898863851
7665620.8804902965,38.40378,-78.40124,-19.729527,89.50340209997455
7665657.0,-31.07909,-78.40124,-6.3364205,84.5743134380559
7665692.8804902965,-20.63644,-74.66591,-30.172178,83.1337542594185
7665729.0,-30.466505,-5.355328,-78.36774,84.25194441441816
7665764.8804902965,20.605331,37.05179,-78.36774,89.1006031434763
7665801.0,19.585953,16.08752,-74.4003,78.59912527985671
7665837.8804902965,-18.66229,-22.541195,-61.01198,67.6671873480236
7665874.0,-43.105846,-55.48436,-66.31227,96.61234557000577
7665909.8804902965,-30.191322,-78.40124,-57.09,101.57528467912499
7665946.0,-17.831951,-78.40124,24.879065,84.16472411454947
7665981.8804902965,34.340626,-67.12825,28.061634,80.45455763898234
7666018.0,10.323006,-61.50731,15.563475,64.28013215907198
7666053.8804902965,-3.2304258,-71.368484,12.766165,72.57321219372054
7666090.0,-57.365185,-66.38166,13.041349,88.69817370261704
7666126.8804902965,-33.955364,-78.40124,-33.026917,91.5996638882206
7666163.0,12.462265,-31.895071,-78.36774,85.5225483468124
7666198.8804902965,78.32467,21.3926,-78.36774,112.84458311357483
7666235.0,22.715876,-42.725372,-78.36774,92.10304613688605
7666270.8804902965,-32.85463,-69.44937,-65.16128,100.74042940682853
7666307.0,-13.685041,-78.40124,-3.6420062,79.66993780511015
7666342.8804902965,58.401314,-78.40124,43.933792,107.18043660091827
7666379.0,15.3840065,-78.40124,64.5822,102.73403840193203
7666415.8804902965,-15.238039,-54.52959,17.023148,59.122428789449486
7666452.0,-33.840508,-34.974743,-3.1371026,48.76734606616439
7666487.8804902965,-5.675978,-22.773306,-30.763226,38.6938789261712
7666524.0,58.853573,-2.3354783,-74.44098,94.9244805996667
7666559.8804902965,78.32467,6.43453,-78.36774,110.984952942448
7666596.0,-25.458149,-54.2903,-78.36774,98.67652556359998
7666631.8804902965,-36.800533,-65.881546,-78.36774,108.79411751166423
7666668.0,-39.8826,-78.40124,-10.028678,88.53220091427347
7666704.8804902965,-42.76127,-78.40124,15.577831,90.652906540359
7666741.0,-17.944418,-78.40124,-8.64797,80.89217487505961
7666776.8804902965,-15.570653,-78.40124,-68.37257,105.18558835120385
7666813.0,38.78904,-71.71067,-57.389114,99.70215755777552
7666848.8804902965,78.32467,3.3859649,-61.96914,99.9319418467015
7666885.0,-30.679474,-15.374434,-78.36774,85.55177390589064
7666921.8804902965,-46.40806,-61.287163,-78.36774,109.77853640060869
7666958.0,-63.361813,-78.40124,40.748833,108.7287504344939
7666993.8804902965,46.470276,-78.40124,28.702932,95.55155305095988
7667030.0,9.827674,-78.40124,-26.499063,83.33989410639929
7667065.8804902965,6.176096,-78.40124,-53.275707,94.99052348360159
7667102.0,78.32467,37.542336,-78.36774,116.98582647335272
7667137.8804902965,69.073685,-7.9061685,-78.36774,104.76251301175061
7667174.0,-78.40124,-53.067524,-78.36774,122.90003746840672
7667209.8804902965,-11.720464,-63.972004,-60.004562,88.4891746653971
7667246.0,-23.349997,-78.40124,23.03174,84.98492713925928
7667281.8804902965,-20.014284,-78.40124,-0.6843717,80.91844265798754
7667318.0,18.018599,-76.7621,-23.184887,82.18654933464217
7667353.8804902965,18.60486,-57.568584,-63.684856,87.84101299009133
7667390.0,78.32467,-10.703478,-11.957362,79.95184099133945
7667425.8804902965,-18.320105,19.96164,-78.36774,82.91921364441552
7667462.0,-57.56619,-12.723092,-78.36774,98.06755821302049
7667498.8804902965,-29.44952,-78.40124,24.728312,87.32421242781032
7667535.0,-57.405865,-78.40124,7.288798,97.44390358673358
7667570.8804902965,0.39004403,-77.66662,-11.4213505,78.50288685018907
7667607.0,21.667782,-59.423088,-18.260283,65.83338134636072
7667642.8804902965,30.497614,-49.770096,-11.66782,59.52566622134197
7667679.0,78.32467,-2.1153307,-78.36774,110.81846067910735
7667714.8804902965,12.067435,5.106466,-78.36774,79.45565842151194
7667751.0,-9.858782,-55.49154,-56.441525,79.76310135909178
7667787.8804902965,70.09546,-78.40124,31.40692,109.75665159814051
7667824.0,78.32467,-78.40124,25.577795,113.73535932685368
7667859.8804902965,-16.422527,-78.40124,6.7336435,80.38529580332725
7667896.0,-15.312219,-76.74296,-31.241808,84.26147712551938
7667931.8804902965,31.167627,78.36774,-78.36774,115.12786942450697
7667968.0,5.783659,-12.861881,-68.60228,70.03678687293443
7668004.8804902965,-30.5694,-64.192154,-46.451134,84.92837394773123
7668041.0,38.049633,-78.40124,51.758602,101.35818608265784
7668076.8804902965,78.32467,-78.40124,41.60549,118.3745123001003
7668113.0,1.8473251,-64.62288,21.000162,67.9745248865024
7668148.8804902965,-39.626556,-59.667164,-2.7183435,71.67861460441338
7668185.0,48.164455,-34.747417,-78.36774,98.3295499141866
7668220.8804902965,71.978676,34.663666,-78.36774,111.91068855109475
7668257.0,-13.335677,-20.507223,-64.31419,68.80916735127782
7668293.8804902965,-31.67014,-78.40124,-26.613924,88.6456606486464
7668330.0,-12.077007,-78.40124,78.40124,111.53189214369695
7668365.8804902965,53.79018,-46.48224,36.027626,79.69925931303173
7668402.0,-15.278718,-44.94599,7.396479,48.04465779252741
7668437.8804902965,17.70034,-58.468315,-40.08839,73.06794719880206
7668474.0,68.13088,64.11797,-78.36774,122.04275299747584
7668509.8804902965,-10.18661,-17.075792,-64.88131,67.85966462513254
7668546.0,-24.845564,-68.678856,-36.853176,81.80613603657007
7668582.8804902965,5.577869,-78.40124,60.51425,99.19597526705034
7668619.0,78.32467,-70.21271,43.034058,113.65081928477402
7668654.8804902965,6.2311325,-52.007465,5.5802617,52.67582698543297
7668691.0,-3.9243693,-22.021933,-33.610786,40.37389184853335
7668726.8804902965,62.596085,18.29139,-44.22812,78.79702662025849
7668763.0,78.32467,78.36774,-78.36774,135.7120454345306
7668798.8804902965,-23.933867,-14.429235,-78.36774,83.20177573205102
7668835.0,-14.252161,-60.00935,-75.56086,97.53814507428373
7668871.8804902965,-60.54297,-78.40124,29.045118,103.22705328348971
7668908.0,12.254083,-78.40124,46.393703,91.92003406092003
7668943.8804902965,-15.044213,-55.00578,-2.471874,57.079543965151345
7668980.0,-5.0107493,-27.437084,-23.158564,36.25217612106344
7669015.8804902965,19.964033,-13.893225,-10.18661,26.369515312531135
7669052.0,68.62382,76.80756,-78.36774,129.42230339958255
7669088.8804902965,62.454903,5.6999073,-78.36774,100.37233944008479
7669125.0,30.150642,-61.521667,-48.272137,83.8103569615225
7669160.8804902965,24.491415,-78.40124,-6.8867893,82.42579516815364
7669197.0,72.31608,-78.40124,78.40124,132.37493831402378
7669232.8804902965,35.05371,-62.878445,37.20972,81.03718092863623
7669269.0,-4.7499228,-59.284298,-3.5702188,59.58134119200941
7669304.8804902965,15.613726,-42.35208,-36.70721,58.17994831480668
7669341.0,-8.624041,78.36774,-78.36774,111.16375051510667
7669377.8804902965,-11.591247,-3.0844586,-73.873856,74.84128200517986
7669414.0,-10.224896,-66.25963,-35.058495,75.657023055449
7669449.8804902965,35.50597,-78.40124,17.568731,87.84126961815193
7669486.0,78.32467,-78.40124,51.768173,122.31701476043482
7669521.8804902965,7.8128448,-51.47863,-2.7877378,52.14270200696677
7669558.0,-7.4132295,-43.87397,-18.36557,48.13704785926813
7669593.8804902965,21.603174,51.54563,-78.36774,96.25565838785154
7669630.0,5.4199367,32.462193,-55.965336,64.92525334408909
7669666.8804902965,-5.3696856,-10.734586,-39.004402,40.809413563684636
7669703.0,19.061907,-78.40124,-10.669977,81.3877087845258
7669738.8804902965,33.27817,-78.40124,74.701805,113.28967606249267
7669775.0,29.413626,-45.345608,30.466505,62.045092362511355
7669810.8804902965,41.402096,-55.407787,-39.188656,79.49784382306807
7669847.0,78.32467,54.613342,-78.36774,123.52681380058931
7669882.8804902965,-34.577522,-77.50868,-30.8063,90.2896927821381
7669919.0,23.692183,-78.40124,78.40124,113.37913565723056
7669954.8804902965,49.894527,-50.373108,35.98455,79.50975834975159
7669991.0,-23.168137,-57.058895,-9.267733,62.27656819086198
7670026.8804902965,66.975105,78.36774,-78.36774,129.49389960602863
7670063.0,-4.7786374,-38.95415,-45.197247,59.85860267331829
7670098.8804902965,27.27676,-78.40124,78.40124,114.18200603936157
7670135.0,78.32467,-59.94235,41.263306,106.91351493698556
7670171.8804902965,-45.953407,-78.40124,-8.174174,91.24301161747965
7670208.0,78.09734,78.36774,-78.36774,135.58097160180998
7670243.8804902965,-20.600546,-78.40124,-49.085724,94.76573869094196
7670280.0,24.934103,-78.40124,78.40124,113.6451422608543
7670315.8804902965,22.746984,-78.40124,56.917713,99.51786657572713
7670352.0,62.26586,-78.40124,-78.36774,127.14281115259644
7670387.8804902965,39.631344,40.02378,-78.36774,96.50932113242915
7670424.0,-43.400173,-78.40124,-39.683987,98.00585836664918
7670460.8804902965,69.222046,-78.40124,78.40124,130.71036882933703
7670497.0,22.072184,-78.40124,10.818337,82.16429976281077
7670532.8804902965,67.27183,-78.40124,-78.36774,129.6678688719534
7670569.0,45.43893,17.42037,-78.36774,92.24786351558176
7670604.8804902965,-39.102512,-78.40124,-8.600112,88.0325099304813
7670641.0,78.32467,-78.40124,78.40124,135.75073774268816
7670676.8804902965,-10.303863,-78.40124,19.291626,81.39466112703121
7670713.0,78.32467,78.36774,-78.36774,135.7120454345306
7670749.8804902965,12.0650425,-33.29253,-78.36774,85.9968631813702
7670786.0,0.67240715,-78.40124,49.81556,92.8913159720895
7670821.8804902965,78.32467,-78.40124,78.40124,135.75073774268816
7670858.0,-55.644684,-78.40124,17.114079,97.65232711520856
7670893.8804902965,51.74185,78.36774,-78.36774,122.31199608721009
7670930.0,10.174645,-30.064497,-66.23809,73.44986009235916
7670965.8804902965,21.06477,-78.40124,78.40124,112.85935230289115
7671002.0,78.32467,-75.95329,78.40124,134.35181660837563
7671038.8804902965,-46.869892,-78.40124,1.5458187,91.35606583627894
7671075.0,78.32467,78.36774,-78.36774,135.7120454345306
7671110.8804902965,0.7106937,-23.31171,-48.27692,53.61531416811543
7671147.0,-9.274912,-78.40124,47.32215,92.04436053755735
7671182.8804902965,78.32467,-74.57498,78.40124,133.5774532102888
7671219.0,-11.196417,-61.06462,13.517538,63.53716552509824
7671254.8804902965,-2.5963054,-56.62817,-34.64931,66.43843106783203
7671291.0,69.155045,71.75374,-78.36774,126.77745117191473
7671327.8804902965,9.626669,-11.811395,-61.569527,63.427032587732775
7671364.0,-31.921394,-63.20149,-39.526054,81.09076814246029
7671399.8804902965,56.896175,-78.40124,78.40124,124.62216334467085
7671436.0,78.32467,-60.449646,67.35319,119.68862032503473
7671471.8804902965,-14.244982,-48.41571,12.526874,51.99926017931697
7671508.0,-18.856115,-50.590862,-16.855644,56.56059693329805
7671544.8804902965,27.27676,78.36774,-78.36774,114.13600212690471
7671581.0,22.270796,-9.889889,-46.156803,52.194336111179204
7671616.8804902965,-12.871452,-58.15006,-11.378278,60.63471748789787
7671653.0,50.72008,-77.9442,77.62354,121.1331448901497
7671688.8804902965,61.16273,-40.107533,22.818771,76.61716553324999
7671725.0,-39.930458,-52.445366,13.938689,67.37391885590775
7671760.8804902965,35.57297,-9.461558,-78.36774,86.58209946123888
7671797.0,12.665663,8.899225,-72.787476,74.41526649338003
7671833.8804902965,-8.054528,-42.77323,-19.272482,47.600978859431116
7671870.0,41.567207,-72.11986,72.68219,110.50704795349729
7671905.8804902965,78.32706,-43.189598,39.82756,97.91171655730894
7671942.0,-31.222664,-51.373344,15.546724,62.09489389741646
7671977.8804902965,50.897156,-36.085052,-69.69584,93.54229834698654
7672014.0,24.847958,1.5434257,-70.20314,74.48680450603841
7672049.8804902965,-5.1830387,-45.35518,-18.473251,49.24649475350605
7672086.0,26.1162,-67.70734,53.924183,90.41104636344548
7672122.8804902965,78.32706,-53.347492,74.5008,120.54647415654124
7672159.0,-16.575674,-55.692543,21.758713,62.04719095799176
7672194.8804902965,9.966462,-52.651157,-21.667782,57.80110271470274
7672231.0,44.716274,63.790142,-78.36774,110.49990972634703
7672266.8804902965,8.226818,-28.66704,-29.344233,41.83973861205413
7672303.0,0.6795859,-69.83463,50.870834,86.40126813935045
7672338.8804902965,78.32467,-40.511932,76.83149,116.9574641508682
7672375.0,-9.526167,-44.723454,25.575401,52.39309431320893
7672411.8804902965,-16.07795,-46.403275,-14.611096,51.23717920855266
7672448.0,51.969177,72.89037,-78.36774,118.97606511186116
7672483.8804902965,14.043978,-7.872668,-32.301865,36.091864761756675
7672520.0,-16.35792,-49.87538,6.4225655,52.880851207905025
7672555.8804902965,38.710075,-56.53963,77.59722,103.52066566039326
7672592.0,21.208344,-33.62993,34.522484,52.6551796935258
7672628.8804902965,-39.779705,-39.30112,8.939904,56.62971699267656
7672665.0,22.79245,21.502672,-78.36774,84.40001986285124
7672700.8804902965,20.971447,3.1442811,-55.900726,59.78778520932769
7672737.0,-11.191631,-37.66437,-14.163623,41.76680007402039
7672772.8804902965,15.599368,-64.15626,50.708115,83.25069913244123
7672809.0,78.20263,-46.15441,78.212204,119.84585831768494
7672844.8804902965,-5.783659,-34.41002,21.545744,41.00877067582272
7672881.0,-22.976704,-30.581366,-2.9480627,38.36456629251403
7672916.8804902965,26.61871,15.381613,-78.36774,84.18225711664822
7672953.0,17.685984,-0.42833054,-54.46259,57.263873485888574
7672988.8804902965,-9.224661,-40.059673,-3.1706033,41.23014063422317
7673025.0,16.30049,-53.8165,48.568855,74.3024583880044
7673060.8804902965,71.78724,-39.23412,72.100716,109.04694973590347
7673097.0,-8.662328,-40.990517,23.651505,48.11083141114793
7673132.8804902965,-5.8123736,-38.365494,-17.729055,42.66162453450452
7673169.0,49.004364,68.70039,-78.36774,115.16368329427551
7673205.8804902965,18.245924,-24.450735,-41.61028,51.59619740186675
7673242.0,-22.605803,-66.22134,16.338776,71.85571516482585
7673277.8804902965,52.969414,-53.42646,59.96149,96.20564292522084
7673314.0,27.396404,-42.900055,39.186264,64.23815811036255
7673349.8804902965,-24.852743,-46.956036,6.4967456,53.52322724620092
7673386.0,5.1088586,-32.8977,-61.411594,69.85515714036889
7673421.8804902965,6.642713,10.191396,-67.281395,68.3723357914238
7673458.0,4.474738,-19.049942,-25.893658,32.456202719865
7673494.8804902965,-8.626433,-60.820545,39.41359,72.98619812737621
7673531.0,77.11625,-43.431282,78.40124,118.23682465189779
7673566.8804902965,8.667113,-33.639503,24.910173,42.74636509379139
7673603.0,-17.537624,-34.2138,-2.8690968,38.55365199891116
7673638.8804902965,13.012634,16.192808,-78.36774,81.07427672973974
7673675.0,-1.3735292,-7.1260805,-52.854553,53.3504580916185
7673711.8804902965,-22.244474,-45.33843,-7.217011,51.01445977539797
7673748.0,-0.34457877,-55.64708,45.077602,71.61498760123847
7673783.8804902965,57.200073,-37.71702,68.05191,96.56854769299282
7673820.0,-6.867646,-34.168335,16.302883,38.47627414869103
7673855.8804902965,-18.272245,6.819788,-25.888872,32.4132401826376
7673892.0,15.55151,43.471962,-78.36774,90.95693275455777
7673927.8804902965,6.226347,19.047548,-55.718864,59.21290642442076
7673964.0,-37.14511,-35.73569,-20.344505,55.4138757026002
7674000.8804902965,-49.75813,-36.668922,20.732155,65.19435246003299
7674037.0,-24.072655,-15.819515,23.562965,37.21509227686363
7674072.8804902965,-38.79861,-5.355328,26.211916,47.12829528330873
7674109.0,-8.353642,-4.974856,-6.5852833,11.743018480193196
7674144.8804902965,4.950927,-3.2854629,-12.596269,13.92738085021611
7674181.0,1.4046371,-1.9956853,-14.979605,15.177098904446709
7674216.8804902965,-6.350778,-3.4266443,-9.708028,12.096283727359841
7674253.0,-3.543897,-3.3117847,-3.9195836,6.236205532465399
7674289.8804902965,-13.41225,-6.6211767,3.2208543,15.300403046225657
7674326.0,-7.829595,-2.1249025,-4.4962745,9.275465103049092
7674361.8804902965,4.450809,2.110545,-13.799901,14.652691512527895
7674398.0,-9.296448,-11.598426,-6.2550616,16.12678600074964
7674433.8804902965,-5.752551,-0.911698,-5.623334,8.095981813613529
7674470.0,-17.281582,9.497452,1.2299547,19.757718984717847
7674505.8804902965,-8.382357,2.7877378,-8.131102,12.006257145813672
7674542.0,-2.680057,-5.3313994,-3.9770133,7.1709943434607615
7674578.8804902965,-10.80398,-1.5577831,-7.5591965,13.27757974002257
7674615.0,-19.274874,5.853053,-6.506317,21.16863618755762
7674650.8804902965,-25.900837,-2.9767776,-18.7939,32.1391543042195
7674687.0,-8.731722,-0.25125536,-2.0148287,8.964688116803417
7674722.8804902965,-3.874118,-1.1725249,-6.168917,7.3782885462641685
7674759.0,-7.011221,-0.7968384,-4.2234826,8.22374468347956
7674795.8804902965,-10.533582,0.8829831,-8.399107,13.50114836978909
7674832.0,-4.4412374,1.4405307,-4.8025665,6.698086542268881
7674867.8804902965,-8.169388,1.74443,-4.9652843,9.717817887739535
7674904.0,-10.55751,3.0030997,-6.692964,12.855947740774933
7674939.8804902965,-10.279933,2.5412683,-6.5039244,12.427232180095022
7674976.0,-9.11698,-0.82076746,4.108623,10.03363177019786
7675011.8804902965,-16.64507,1.3472073,-10.80398,19.8896783949483
7675048.0,-12.220582,6.707321,9.329948,16.77434675623671
7675084.8804902965,-15.355291,-0.2991135,1.3160994,15.414491500248836
7675121.0,-6.0732007,-19.928139,-1.7492158,20.90632073466709
7675156.8804902965,-16.554138,-2.7781663,-12.40005,20.86909037107271
7675193.0,-9.705635,-0.832732,-2.782952,10.131022414907243
7675228.8804902965,-7.2289753,-1.6271775,-2.577162,7.84522494762007
7675265.0,-10.765694,-0.110073775,-1.4524952,10.863794265522603
7675300.8804902965,-0.6652284,-1.8401463,-3.2639267,3.805507158388109
7675337.0,-7.161974,-2.1679747,-2.3450499,7.841762870044343
7675373.8804902965,-10.406757,6.0229497,4.4914885,12.835497002119215
7675410.0,-11.639105,2.1177237,5.9726987,13.252420481993031
7675445.8804902965,-7.3893003,-3.6659353,-8.083243,11.549011124092624
7675482.0,-13.570182,-0.63412064,-2.1368668,13.752023422760022
7675517.8804902965,-9.227054,0.9667349,-0.48815325,9.290392644085587
7675554.0,-10.966698,0.16989647,-1.7492158,11.106623508010529
7675589.8804902965,-11.368707,-1.9454343,-2.94567,11.904166716589847
7675626.0,-12.242118,-0.66283554,7.8750606,14.571389210802224
7675662.8804902965,-9.064336,-3.0054924,3.5773976,10.197693135010462
7675699.0,-7.379729,2.112938,2.3067634,8.015364276741549
7675734.8804902965,-40.090782,-3.6252558,27.563908,48.787112081157474
7675771.0,-5.278755,-0.5527618,-1.9358627,5.649634001492091
7675806.8804902965,-12.476623,0.3852582,-2.68245,12.76754022383702
7675843.0,-10.323006,-0.28954187,-2.3665862,10.594763688376892
7675878.8804902965,-14.816887,0.4139731,-2.3306925,15.00478729032334
7675915.0,-9.28209,-11.62714,-7.025578,16.453155490111435
7675950.8804902965,-9.071514,-0.20339718,3.9243693,9.886071569021258
7675987.0,-11.201202,1.6630712,7.5831256,13.628518845657762
7676022.8804902965,-21.342348,4.6207056,4.55849,22.307545124353673
7676059.0,-1.1318455,-6.4919596,1.6989647,6.805372490595096
7676094.8804902965,-10.174645,0.5264398,-2.658521,10.52940044097906
7676131.0,-8.949476,-1.5194967,-5.597012,10.664358125270875
7676167.8804902965,-9.466345,-1.0648441,-3.8693323,10.281892484564946
7676204.0,-3.8286529,5.3960075,8.815474,11.022162302080778
7676239.8804902965,-9.877925,1.0217718,7.2959766,12.322690228381456
7676276.0,-12.866667,-0.2584341,4.3862004,13.596200271468936
7676311.8804902965,-49.124012,-6.24549,-24.587132,55.2874466791664
7676348.0,-6.116273,-3.3381069,-3.2304258,7.680325770152087
7676383.8804902965,-10.394793,2.3235137,-1.5314612,10.760846195074166
7676420.0,-10.806373,1.6511066,-4.16366,11.697859420222683
7676456.8804902965,-8.379964,-0.52165395,-4.2785196,9.423462710300855
7676493.0,-0.56711924,6.0253425,5.0825367,7.903072553224557
7676528.8804902965,-11.328027,-0.16032484,4.307235,12.120320668706546
7676565.0,-9.33952,3.177782,6.8580747,12.014912436664035
7676600.8804902965,-9.411307,2.7446656,6.7264647,11.889121753284321
7676637.0,12.263654,-5.0945015,-4.97007,14.179307132935595
7676672.8804902965,-13.773579,2.8308103,-3.2471762,14.431532098071692
7676709.0,-8.959048,0.90451926,-3.304606,9.591825528711984
7676745.8804902965,-8.078458,0.11246668,-4.276127,9.141082787722864
7676782.0,5.9200544,5.8243384,12.309119,14.848716188709208
7676817.8804902965,-9.607526,-0.7154795,4.6422415,10.694244849446758
7676854.0,-8.341678,1.2060257,8.368,11.876932004720095
7676889.8804902965,-28.942223,-38.463604,-40.12907,62.6693175638242
7676926.0,-10.526402,4.6900997,-4.5967765,12.406954842043085
7676962.8804902965,-10.705871,4.580026,-2.6489491,11.941911210677619
7676999.0,-10.854231,1.9861137,-4.6542063,11.975834606141168
7677034.8804902965,-8.669506,-1.5745336,-7.085401,11.306741249023343
7677071.0,-7.5568037,7.2529044,10.358899,14.731486445300558
7677106.8804902965,-8.947083,0.7130866,9.373021,12.97737682948405
7677143.0,-9.834852,5.809981,10.679549,15.637549677800099
7677178.8804902965,-6.99447,5.051429,9.11698,12.552245609584803
7677215.0,5.654442,-7.1212945,-2.4479449,9.416898848375206
7677251.8804902965,-13.283032,5.733408,-0.6006199,14.480043186115296
7677288.0,-9.961677,5.1375737,-1.2395264,11.276794663004095
7677323.8804902965,-10.342149,5.754944,-1.4189945,11.920275658405188
7677360.0,-10.710656,6.2981343,0.30150643,12.428819482899566
7677395.8804902965,-6.11388,-11.337599,-8.157424,15.246778218855845
7677432.0,-8.324927,0.30629224,3.697043,9.114074359772486
7677467.8804902965,-7.599876,-1.2323477,1.9741492,7.948211190760593
7677504.0,10.138752,-9.200731,11.493137,17.87568015916133
7677540.8804902965,-2.342657,-5.841089,-8.760436,10.786639951146325
7677577.0,-8.150245,-1.225169,-6.7575727,10.657969855200909
7677612.8804902965,-4.924605,-3.35725,-9.270126,11.020802966408617
7677649.0,-8.61447,1.277813,-7.84156,11.718872073602862
7677684.8804902965,-14.331126,9.411307,3.8142955,17.56424555844757
7677721.0,-6.1114874,8.092815,0.24886245,10.144252825299839
7677756.8804902965,-6.5757113,15.09925,14.175588,21.729579489930117
7677793.0,-2.342657,15.80755,9.906639,18.801813080085388
7677829.8804902965,-10.275147,9.516596,-14.233017,19.96804993536209
7677866.0,-9.925783,9.796566,-1.6319634,14.041266968987683
7677901.8804902965,-9.0428,7.422801,-4.7451367,12.62483777429587
7677938.0,-7.274441,4.1732316,-8.150245,11.694436600783492
7677973.8804902965,-8.848974,2.833203,-7.7697725,12.112008289034534
7678010.0,-12.699163,0.7657306,-1.1749178,12.776365527375232
7678046.8804902965,-12.756593,-1.6870002,-3.491253,13.332872239411058
7678083.0,-10.780051,1.3639576,-2.0339718,11.054723930537298
7678118.8804902965,-10.382828,2.500589,0.12443122,10.680428163375085
7678155.0,-39.138405,12.392871,3.5917552,41.210419835078035
7678190.8804902965,-4.836067,3.4266443,-10.6771555,12.211923876211795
7678227.0,-7.7506294,2.3474429,-6.762358,10.550461126655497
7678262.8804902965,-7.6692705,2.627413,-8.293819,11.597777488790696
7678299.0,-6.5493894,3.618077,-6.17131,9.698971585011545
7678335.8804902965,-3.6396132,1.2538838,-9.518989,10.267918991287264
7678372.0,-13.706577,0.70830077,-0.9021264,13.754481999671546
7678407.8804902965,-8.518753,4.0057282,-0.11485959,9.414255350939829
7678444.0,-5.515653,4.070337,-2.2947989,7.228843150976456
7678479.8804902965,-54.732986,9.442415,-12.153581,56.85568123443762
7678516.0,-8.915976,-1.5218896,-8.19571,12.20575431471829
7678551.8804902965,-7.150009,0.859054,-8.284247,10.976764133022355
7678588.0,-6.4704237,2.031579,-6.3292418,9.276475508167417
7678624.8804902965,-5.7381935,0.21296883,-7.834381,9.71337974235306
7678661.0,-0.78487384,-1.40703,22.84988,22.906609884049107
7678696.8804902965,-7.1212945,-1.3926725,-2.1584032,7.570407942888992
7678733.0,-10.289505,2.41923,-0.5049036,10.582131854367436
7678768.8804902965,-10.82073,2.8714898,-0.30629224,11.199440447660242
7678805.0,9.842031,-6.4417086,6.1306305,13.26445680078175
7678840.8804902965,-7.810452,-0.20339718,-10.863803,13.381582360840028
7678877.0,-5.2380757,1.0433079,-7.654913,9.334003506036511
7678913.8804902965,-4.5489182,0.5336185,-6.812609,8.209083193677262
7678950.0,-6.008592,1.1677392,-6.7862873,9.138954424868412
7678985.8804902965,18.320105,-0.9739136,17.298332,25.215214551804117
7679022.0,-8.174174,-2.112938,-6.063629,10.394672877188635
7679057.8804902965,-9.889889,2.500589,0.24407662,10.20403955184772
7679094.0,-10.82073,3.3500714,0.43790218,11.335913480494048
7679129.8804902965,-9.95689,1.2084186,-1.1485959,10.095504273012953
7679166.0,-3.1466742,-2.0244002,-13.95544,14.448323788049105
7679201.8804902965,-4.5202036,-0.47140288,-7.8319883,9.055081556345153
7679238.0,-5.355328,0.9021264,-7.075829,8.919681948724515
7679273.8804902965,-5.6376915,-0.27997026,-7.6620917,9.516806082655338
7679310.0,-5.8434815,0.34936458,-8.164602,10.046345478282381
7679345.8804902965,-5.8626246,-0.016750356,-7.903775,9.840747279834813
7679382.0,-5.498903,-0.83991075,-9.066729,10.637149948685295
7679418.8804902965,-5.185432,-1.0624512,-10.792015,12.020195312025109
7679455.0,-1.770752,-1.9693633,-8.025814,8.451487727938016
7679490.8804902965,0.2919348,-3.7640445,-3.9100118,5.435204614508136
7679527.0,1.4405307,-4.343128,-5.5946193,7.2275621501277305
7679562.8804902965,-2.6704855,0.89494765,-4.350307,5.182431388470066
7679599.0,-6.9585767,6.9370403,-5.7812657,11.400322403669268
7679634.8804902965,-10.327791,5.5802617,-20.29186,23.44274237028953
7679671.0,-8.073672,2.895419,-18.729292,20.59985460071039
7679707.8804902965,-6.197632,3.933941,-15.147108,16.83215419851449
7679744.0,-4.3359494,3.6396132,-12.715914,13.919113129088743
7679779.8804902965,-9.731957,5.616155,-10.155502,15.14550774671744
7679816.0,-9.4495945,3.0270288,-6.5972476,11.915595472579852
7679851.8804902965,-7.441944,3.0557437,-0.011964541,8.044889260236404
7679888.0,-8.145459,2.6633067,-3.2926416,9.18058786815945
7679923.8804902965,-10.114822,-19.325127,58.465923,62.40219795728145
7679960.0,-6.0875583,-1.3687434,-3.2663195,7.042774142837658
7679996.8804902965,-10.461794,-2.1679747,-5.1136446,11.844771382064968
7680033.0,-8.585754,-2.7398798,-2.4575167,9.341386481553096
7680068.8804902965,-7.602269,-5.0442505,-2.0674727,9.35485972211003
7680105.0,-6.58289,-6.015771,-14.718778,17.209484806054625
7680140.8804902965,-7.161974,-7.4515157,-13.421822,16.940019586874936
7680177.0,-12.438336,-2.1679747,3.4745026,13.095208477383736
7680213.8804902965,-8.360821,-1.3065279,-0.43311638,8.473366081206672
7680250.0,-7.1835103,-6.9848986,4.0248713,10.79774132233458
7680285.8804902965,1.8927903,-8.303391,0.28236315,8.521073064299648
7680322.0,-6.64032,-4.084694,-1.3998512,7.920742273182321
7680357.8804902965,-5.970306,-4.020086,0.9571632,7.260978348161234
7680394.0,-7.2481184,-5.3266134,-1.0241647,9.053007455326888
7680429.8804902965,6.195239,-3.8166883,1.1055236,7.3600460784314965
7680466.0,-9.60274,-3.153853,7.729093,12.723925607133124
7680502.8804902965,-6.195239,-2.1272953,3.5869691,7.468113475629432
7680539.0,-9.502238,-2.9289196,4.505846,10.916672808489965
7680574.8804902965,-2.0626867,-9.373021,-3.491253,10.212592550317813
7680611.0,-10.193789,-4.395772,-0.66283554,11.120948547924863
7680646.8804902965,-8.523539,-4.158874,-1.6439278,9.625458360203416
7680683.0,-12.012399,-3.2878556,-0.63651353,12.470480089215709
7680718.8804902965,-6.819788,-4.450809,-0.24168372,8.147246169101436
7680755.0,-14.302412,-4.402951,7.0231853,16.530883167099123
7680791.8804902965,-10.5766535,-0.7059079,8.88726,13.832833965964626
7680828.0,-7.8487387,0.18425392,5.42233,9.541399861488514
7680863.8804902965,-8.334499,-1.067237,10.320613,13.308565703746552
7680900.0,-10.1339655,-5.077751,8.956655,14.446538712169648
7680935.8804902965,-8.076065,-1.899969,0.13160995,8.297591774974531
7680972.0,-8.899225,-3.773616,-0.208183,9.668491272042914
7681007.8804902965,-9.090658,-1.8377534,4.158874,10.164331428089678
7681044.0,-7.1763315,-3.254355,1.3496002,7.994496917490011
7681080.8804902965,-36.570816,5.5802617,24.563202,44.40624726363563
7681117.0,-7.243333,-0.3852582,7.6118407,10.514485991798777
7681152.8804902965,-7.5065527,-2.1296883,8.260319,11.362956291159234
7681189.0,-5.0131426,-4.493881,4.29527,7.985982065030935
7681224.8804902965,-4.5202036,-7.0686507,6.295741,10.489729169199006
7681261.0,-10.882946,-6.1737027,-3.2304258,12.922413455551132
7681296.8804902965,-13.113136,-4.03205,-1.6247846,13.814908177523048
7681333.0,-10.490509,-4.819317,-2.1512244,11.74326878874555
7681369.8804902965,-10.346934,-4.457988,0.25604117,11.269350349032324
7681406.0,-16.587639,12.500552,10.461794,23.25645505225293
7681441.8804902965,-6.898754,0.5431901,13.340463,15.028500101195162
7681478.0,-8.231604,-0.43311638,7.8702745,11.396846709366173
7681513.8804902965,-6.8078237,-2.708772,4.1110163,8.401450130610273
7681550.0,-12.694378,-1.1485959,12.627376,17.942049213892954
7681586.8804902965,-8.91119,-4.816924,-2.6321988,10.466161405242968
7681623.0,-9.954497,-2.495803,-0.6293348,10.28188238739916
7681658.8804902965,-7.860703,-2.7470584,-0.2919348,8.331999005921125
7681695.0,-9.33952,-5.0418572,4.7283864,11.619147808823882
7681730.8804902965,-6.5206747,-3.5845764,5.1327877,9.039573888404714
7681767.0,-8.971012,-1.4931747,9.451987,13.116733024539041
7681802.8804902965,-8.097601,0.7322299,9.272519,12.332352216305534
7681839.0,-31.971645,-21.64864,9.480701,39.758437963620075
7681875.8804902965,-17.961168,-2.730308,-1.2682413,18.211715286982542
7681912.0,-10.279933,-2.7949166,-2.0363648,10.845983721365416
7681947.8804902965,-12.68002,-0.93562704,-0.7968384,12.739437059544418
7681984.0,-9.698457,-1.6104271,-0.99066395,9.881040364612069
7682019.8804902965,-4.8288884,1.9741492,2.658521,5.855182503642069
7682056.0,-10.179431,-1.3232782,4.582419,11.24146096243354
7682091.8804902965,-9.495059,-0.35893622,4.3096275,10.433497487049351
7682128.0,-10.354114,-0.98827106,1.3424214,10.487442568529636
7682163.8804902965,-8.88726,-1.5817122,0.9188767,9.073562595862319
7682200.0,-5.4534373,-6.8604674,7.9827414,11.854541390993074
7682235.8804902965,-7.410836,-4.4723454,-5.29072,10.144657791872389
7682272.0,-10.150716,-2.6250203,-1.119881,10.544282827306422
7682307.8804902965,-7.760201,-3.4673238,-2.7662017,8.938396150290629
7682344.0,-6.769537,-1.6798215,0.20100428,6.977738472227916
7682379.8804902965,-9.236626,-3.2950344,4.3526998,10.72932929450762
7682416.0,-8.774794,-2.2924058,2.9289196,9.530514367943306
7682452.8804902965,-20.880516,-6.7480006,-2.3857293,22.07313219316042
7682489.0,-9.873138,-0.2057901,4.97007,11.055442068827551
7682524.8804902965,-9.485488,-4.453202,-3.670721,11.103138444187255
7682561.0,-8.947083,-3.9913707,-1.586498,9.924631488257459
7682596.8804902965,-9.380199,-3.1706033,-1.4142087,10.002042032141615
7682633.0,-10.882946,-4.5967765,-2.4981961,12.075175012558761
7682669.8804902965,-11.986076,-4.5345607,13.237568,18.424480051669967
7682706.0,-10.531189,-2.6393776,5.546761,12.191751861821325
7682741.8804902965,-8.396714,-1.5386399,4.900676,9.84321309312381
7682778.0,-10.827909,-1.5984626,8.968619,14.150435426623478
7682813.8804902965,-10.24404,-3.9961565,-2.215833,11.21693087158788
7682850.0,-9.920997,-3.8956544,-0.9475916,10.70047823784708
7682885.8804902965,-6.6594634,-4.3862004,-1.87604,8.191869921238967
7682922.0,-1.7133222,-5.149538,-0.5527618,5.455159042777404
7682958.8804902965,-2.8068812,-25.453363,15.881731,30.132733856008542
7682995.0,-5.3816504,-0.2680057,-3.1466742,6.239835462894698
7683030.8804902965,-12.007613,-3.6420062,0.7992313,12.573215570788053
7683067.0,-14.283268,-1.5553902,-4.3646646,15.016034113725674
7683102.8804902965,-20.921196,1.8066456,1.9334698,21.08788078167001
7683139.0,-11.261025,-1.7276796,-5.5946193,12.692333353753897
7683174.8804902965,-13.938689,0.31107804,-8.277069,16.21399678723455
7683211.0,-10.6771555,1.2395264,-8.540289,13.728605590918482
7683247.8804902965,-9.662563,4.36945,2.390515,10.870684384926923
7683284.0,-9.8922825,0.5168682,-5.0418572,11.115067693053845
7683319.8804902965,-12.895382,-0.5431901,-5.7812657,14.142452598635728
7683356.0,-16.972897,-0.10289505,8.131102,18.820325175148476
7683391.8804902965,-9.739136,-7.1189017,0.4139731,12.070662996218664
7683428.0,2.2325833,9.224661,-11.036092,14.555896584849174
7683463.8804902965,2.9935281,25.412683,-32.981453,41.74376492046672
7683500.0,-68.02559,65.88394,-78.36774,122.92142660040722
7683536.8804902965,-19.518951,-23.653896,19.255732,36.21159288094133
7683573.0,-2.1249025,-12.34262,8.0617075,14.894516001349707
7683608.8804902965,-4.051193,4.5943837,-7.420408,9.622005050535916
7683645.0,-3.4457877,28.444498,-26.570852,39.07650311058269
7683680.8804902965,-2.763809,9.231839,-12.665663,15.91491472612942
7683717.0,0.9164838,-77.247856,-24.213837,80.95913229163816
7683753.8804902965,-8.918368,-5.017928,1.2371335,10.307637386590113
7683790.0,-7.8630958,-6.1067014,-2.5843408,10.28585897819352
7683825.8804902965,-3.43143,20.375612,-11.887967,23.838289276131647
7683862.0,-1.5793194,10.07175,2.3378713,10.459447406296379
7683897.8804902965,-3.3883579,-3.2495692,-4.508239,6.508831548381172
7683934.0,-4.2306614,-2.0363648,-4.194768,6.296138185741557
7683969.8804902965,-10.212932,-5.1016803,-16.164095,19.789115419569846
7684006.0,-7.7003784,0.3517575,-7.6333766,10.848409983007665
7684042.8804902965,-1.6056414,-1.2347406,14.812101,14.949949989511113
7684079.0,-65.75233,-21.004948,78.40124,104.45731747680105
7684114.8804902965,-6.905933,-0.33979294,-16.027699,17.455500711155892
7684151.0,-13.232781,-7.286405,-17.257652,22.935229307139924
7684186.8804902965,-5.503689,1.5817122,-4.1421237,7.067502729992506
7684223.0,0.014357449,4.917426,12.971954,13.872738560930708
7684258.8804902965,2.2062612,2.8164527,1.2586696,3.792656516997933
7684295.0,-11.62714,-1.9358627,-16.322025,20.133217553920097
7684331.8804902965,-12.522088,-7.4874096,-17.035112,22.428977490078772
7684368.0,-1.9908996,4.836067,1.6726427,5.49080675744762
7684403.8804902965,-2.108152,2.5867336,6.642713,7.433783126567653
7684440.0,11.014556,-15.6759405,78.40124,80.7081779497857
7684475.8804902965,12.395264,-5.996628,-16.520638,21.506594266111126
7684512.0,-8.183745,-0.067001425,-8.518753,11.81301502966055
7684547.8804902965,-2.2589052,-0.62454903,7.968384,8.305892954096928
7684584.0,9.341913,-1.2634555,-35.67826,36.902654307348264
7684619.8804902965,-4.4675593,-5.446259,-4.2856984,8.245485672163893
7684656.0,-6.2550616,-1.5410328,-8.308177,10.513152846496594
7684691.8804902965,-1.3137065,3.5630403,2.2732627,4.425924112632031
7684728.0,-71.57667,-10.583833,-68.91576,99.92306633424731
7684763.8804902965,0.043072347,-6.322063,3.0868514,7.035551674796159
7684800.0,1.7540016,-4.788209,0.832732,5.1669052269523545
7684836.8804902965,5.941591,2.3737648,1.1318455,6.497563941422222
7684873.0,5.0346785,-5.128002,4.8312817,8.65942694265164
7684908.8804902965,-12.084186,-5.21654,-4.118195,13.79127879901719
7684945.0,-14.6398115,-12.526874,-13.357213,23.444867073514775
7684980.8804902965,-18.07842,-14.8910675,-14.821672,27.717415497508785
7685017.0,-12.254083,-10.6364765,-11.607997,19.95100941952437
7685052.8804902965,-6.980113,-7.185903,-9.944926,14.115974375283274
7685089.0,-5.970306,-10.035856,-7.3031554,13.773127392967842
7685125.8804902965,-3.5797906,-8.724543,-5.8123736,11.077736147998575
7685162.0,-2.0650797,-8.408679,-4.862389,9.930421112909265
7685197.8804902965,-3.0868514,-8.308177,-6.4536734,10.96377475976584
7685234.0,-2.7279153,-12.414407,-0.62454903,12.725921755868885
7685269.8804902965,-9.203125,-14.668527,-13.780758,22.13080398833079
7685306.0,-5.362507,-6.84611,-14.926961,17.275412242625933
7685341.8804902965,-6.537425,-3.1059947,-18.691006,20.04342370951353
7685378.0,-9.497452,-6.953791,-19.593132,22.85711323272055
7685414.8804902965,-4.118195,-5.8482676,-14.295233,15.984850656278393
7685451.0,-2.7494514,-8.018635,-6.226347,10.517860392142309
7685486.8804902965,0.16750357,-7.5639825,0.6556568,7.594193475653306
7685523.0,3.7257578,-7.3318706,10.947555,13.692573102139356
7685558.8804902965,-12.500552,-26.422491,23.086777,37.24796777271901
7685595.0,-5.235683,-10.172253,-4.972463,12.474473770819634
7685630.8804902965,-9.99757,-0.2991135,-15.6256895,18.552709967581354
7685667.0,-6.6020336,3.1466742,-10.959519,13.175714890958881
7685703.8804902965,-1.1509888,6.403422,-7.674056,10.06080136067428
7685740.0,-64.39794,21.04084,64.47452,93.52419661980316
7685775.8804902965,-6.64032,-2.2493336,-8.473288,10.997725259226698
7685812.0,-10.665192,-7.260083,-19.841993,23.667695531584858
7685847.8804902965,-4.474738,4.4651666,-12.256475,13.790655254918983
7685884.0,2.526911,3.668328,2.9767776,5.357528758426478
7685920.8804902965,-0.6556568,-1.1916683,0.37329367,1.4104280700103777
7685957.0,-6.661856,3.854975,-19.396914,20.868191832038466
7685992.8804902965,-15.786015,-4.9533195,-24.015226,29.16272832710241
7686029.0,-2.6417706,5.1423593,-7.0590787,9.124330285895757
7686064.8804902965,2.4670882,2.3211207,6.5541754,7.377759867636849
7686101.0,77.226326,-78.40124,-78.36774,135.100564520299
7686136.8804902965,-9.542917,4.9078546,-20.270325,22.935570131332142
7686173.0,-15.147108,1.0480938,-24.132479,28.511575264490446
7686209.8804902965,-1.040915,3.8142955,-1.562569,4.251349912475595
7686246.0,4.063158,-1.1844895,13.871688,14.502965085730514
7686281.8804902965,28.707718,-22.76852,49.42791,61.52769183648955
7686318.0,-8.257926,-0.4450809,-14.187552,16.421877803154082
7686353.8804902965,-3.9435124,0.60540575,-4.5178103,6.027305872267718
7686390.0,1.1294526,-1.5912839,10.105251,10.29193594029068
7686425.8804902965,17.40362,-45.539433,-56.72628,74.79703730565997
7686462.0,-10.983448,1.0169859,-16.116236,19.529553325593465
7686498.8804902965,-7.542446,-3.4027152,-3.8980472,9.14667887097032
7686535.0,2.0555081,-0.033500712,9.688885,9.904581181962977
7686570.8804902965,-78.40124,-27.20258,9.416093,83.51884577494262
7686607.0,-12.234939,2.3546216,-8.595325,15.136630637910558
7686642.8804902965,-26.422491,2.995921,-39.640915,47.733905301374065
7686679.0,-6.45128,1.8066456,-8.23639,10.617019459080753
7686714.8804902965,-6.1617384,-0.6532639,-3.6228628,7.177667357902679
7686751.0,-9.112194,-1.8568966,-5.7860518,10.952558601030665
7686787.8804902965,-6.9346476,-0.7633377,-2.9265265,7.565486047547064
7686824.0,-3.1299238,-0.8279462,5.9176617,6.745416065710682
7686859.8804902965,2.4551237,1.797074,8.396714,8.930952543910065
7686896.0,-78.40124,1.4501023,78.40124,110.88557915146436
7686931.8804902965,-5.472581,4.8815327,-15.862588,17.475703200743435
7686968.0,-4.57524,1.1916683,-6.544604,8.073706454388894
7687003.8804902965,4.0966587,3.4194658,7.8750606,9.512725073044406
7687040.0,2.8164527,-1.3735292,10.476151,10.934748650489912
7687075.8804902965,1.3998512,-13.0581,8.872903,15.849352246686628
7687112.0,-16.59721,-6.350778,-4.50106,18.331920306203166
7687147.8804902965,-2.060294,3.3500714,-1.9573988,4.393085454868298
7687184.0,0.67240715,-2.237369,13.775971,13.972663611866318
7687219.8804902965,-78.40124,-0.11246668,78.40124,110.8761539548938
7687256.0,-4.2067323,5.8721967,-6.544604,9.747365400156607
7687292.8804902965,-5.2500405,0.6795859,-0.72744405,5.343588409767303
7687329.0,-3.4266443,-0.0598227,7.212225,7.9850898156991805
7687364.8804902965,-1.4261732,0.27039862,2.316335,2.733586150521169
7687401.0,-13.440965,1.8521109,-40.849335,43.04367578238816
7687436.8804902965,-13.067671,-0.5886554,-19.98796,23.887843885662644
7687473.0,-7.5065527,-2.7805593,1.2538838,8.10259637663115
7687508.8804902965,0.6173703,-1.9478272,11.189239,11.374280033808864
7687545.0,35.02021,-15.058571,17.441908,41.921305128616936
7687581.8804902965,-3.799938,2.3833365,-7.8989897,9.083713995760894
7687618.0,-6.307706,-2.6106627,-1.2275618,6.9361100545209435
7687653.8804902965,-1.1844895,-1.5147108,8.63122,8.84281193239158
7687690.0,-0.22014755,-1.746823,0.2991135,1.7858679746784902
7687725.8804902965,-6.817395,4.4460235,-16.970505,18.821318750385217
7687762.0,-13.620433,1.3304569,-21.560102,25.536724710123863
7687797.8804902965,3.0413861,0.2919348,9.629062,10.102182454131793
7687834.0,-18.03774,-12.345013,-55.302498,59.4653318776392
7687870.8804902965,-4.1995535,0.9284483,-5.3218274,6.842522394594401
7687907.0,-9.746315,-5.135181,-8.430215,13.871887576253313
7687942.8804902965,-7.262476,-2.9528487,-5.4797597,9.56507393935937
7687979.0,-12.220582,-5.941591,-8.119137,15.829261311090104
7688014.8804902965,-13.120315,-3.5103962,-4.9963923,14.471678658528138
7688051.0,-20.363647,-11.057629,5.5635114,23.83069317792036
7688087.8804902965,-20.559866,-18.947046,13.230389,30.931243672949737
7688124.0,-3.2591407,-11.299312,5.443866,12.958862866845088
7688159.8804902965,64.59177,15.910446,-4.661385,66.68558730168043
7688196.0,78.32945,56.75978,-52.02182,109.83371576644076
7688231.8804902965,26.197557,-52.591335,-65.386215,87.90630023995266
7688268.0,17.463444,-77.93462,-44.40041,91.37928254836342
7688303.8804902965,8.336892,-78.40124,52.165398,94.53828298766415
7688340.0,25.324146,-63.069878,72.20122,99.15713817498265
7688376.8804902965,-10.715443,-53.3786,16.164095,56.79237293699986
7688413.0,-19.516558,-40.60765,-21.897503,50.093691342572
7688448.8804902965,20.997768,-7.599876,-49.226906,54.0550890345214
7688485.0,64.79995,58.580784,-70.308426,112.13392234580324
7688520.8804902965,44.630127,7.2959766,-39.377697,59.964010302911575
7688557.0,15.111215,-39.41359,-15.769264,45.06051023419531
7688592.8804902965,20.655582,-58.748287,15.491687,64.1716967151334
7688629.0,11.588854,-78.40124,71.11005,106.47861372864233
7688665.8804902965,7.154795,-48.91583,28.188457,56.90815955662047
7688702.0,3.0772798,-40.37793,-6.9035397,41.07926170760453
7688737.8804902965,7.7937016,-21.182022,-26.93936,35.14468605419498
7688774.0,6.7312503,10.780051,-43.730396,45.539727321105765
7688809.8804902965,-11.095915,59.753307,-52.23479,80.13769595806691
7688846.0,4.8599963,11.53621,-20.552687,24.06484257418034
7688881.8804902965,6.405815,-16.216738,-5.460616,18.27116264155965
7688918.0,8.576182,-31.96686,6.264633,33.68496196496907
7688954.8804902965,8.099994,-42.086468,11.275383,44.317208320377645
7688991.0,1.9119335,-31.275309,3.2112827,31.49782181886904
7689026.8804902965,4.2234826,-16.025305,-1.6247846,16.651970772612017
7689063.0,-10.7298,-12.488587,-6.3483853,17.646399327166577
7689098.8804902965,0.07896597,-5.6448703,-6.089951,8.304113409066685
7689135.0,0.94280577,-8.073672,-1.3902797,8.24657140439355
7689171.8804902965,-1.8856115,-8.298605,-4.790602,9.76587134859769
7689208.0,-2.3115492,-9.4998455,-3.6228628,10.426670566173783
7689243.8804902965,-2.5388756,-10.241647,-5.1447525,11.739067291362657
7689280.0,-1.3639576,-10.835088,-0.7705164,10.947748984380796
7689315.8804902965,-1.0265576,-10.758514,-3.3620358,11.318247599111595
7689352.0,-0.37568656,-10.4857235,0.5072965,10.504707870699173
7689387.8804902965,-0.63412064,-9.547704,-3.646792,10.240109987151213
7689424.0,0.63412064,-9.916211,-2.2924058,10.197473899670872
7689460.8804902965,-6.3938503,-2.1201165,-1.9597918,7.01548284380552
7689497.0,1.8090385,-9.468738,-4.4460235,10.61587229433731
7689532.8804902965,-11.49553,-25.281075,-28.657467,39.90652049468375
7689569.0,-1.2802058,-6.0492716,-0.31586388,6.191315189166907
7689604.8804902965,1.8162172,-12.81163,1.3376356,13.00868083907293
7689641.0,-0.37807947,-8.786758,-0.416366,8.804738547064046
7689676.8804902965,-1.6152129,-9.94014,2.6010911,10.401008164712959
7689713.0,-0.2967206,-10.457008,3.1179593,10.915985050511239
7689748.8804902965,0.8040171,-7.7219143,6.1880603,9.928065986387933
7689785.0,-2.6656997,-6.3148847,-1.1940612,6.957694001191747
7689820.8804902965,-12.739842,-9.404129,-2.5963054,16.046246232800808
7689857.0,-1.7133222,-11.529031,1.1773108,11.714951535528026
7689892.8804902965,-1.926291,-9.743921,3.5295393,10.540979135790304
7689929.0,-2.5173392,-6.944219,2.3378713,7.74756841745727
7689964.8804902965,-1.0624512,-6.611605,4.44363,8.03666415904674
7690001.0,-6.7862873,-10.887732,-1.5649619,12.92460866604544
7690037.8804902965,-7.056686,-8.734115,2.9289196,11.60431610044664
7690074.0,-3.5606472,-5.005964,2.237369,6.537866937642952
7690109.8804902965,-3.2088897,-7.997099,5.8004093,10.387266896065277
7690146.0,4.7475295,-61.026337,-78.36774,99.43970794757263
7690181.8804902965,-2.7709875,-7.425194,4.357486,9.044311024228891
7690218.0,-1.6511066,-8.846581,3.8214743,9.777106638453171
7690254.8804902965,-4.3024487,-9.507024,0.19861138,10.437146000366825
7690291.0,-2.215833,-8.671899,2.5460541,9.30559722050212
7690326.8804902965,-2.0196145,-9.014085,1.4429235,9.349577495410555
7690363.0,-3.5773976,-9.243804,-0.24886245,9.915019843546546
7690398.8804902965,-2.9193478,-9.621883,1.3376356,10.143593694615396
7690435.0,-2.1560102,-10.057393,0.8614469,10.321900246586024
7690470.8804902965,-2.8068812,-10.801587,1.4644598,11.255998680494702
7690507.0,-1.8975761,-8.992549,3.6874714,9.90273587946837
7690543.8804902965,-1.1222739,-9.56924,2.0746512,9.85565981991478
7690580.0,-4.9389625,-6.066022,-3.8956544,8.7387697466594
7690615.8804902965,-5.053822,-16.544567,0.54079723,17.307694117621466
7690652.0,-0.69633627,-7.946848,7.130866,10.69983772054406
7690687.8804902965,-1.691786,-9.253376,-1.3687434,9.505817469434996
7690724.0,-4.55849,-7.3581924,-1.1079165,8.726414237617306
7690759.8804902965,-1.6056414,-8.652756,5.388829,10.319290125399661
7690796.0,-1.9932925,-10.811159,0.6532639,11.012771115249805
7690832.8804902965,-0.21536173,-16.274168,3.6228628,16.673933538148592
7690869.0,0.047858164,-7.0447216,4.5106316,8.365177239980428
7690904.8804902965,2.4144442,-8.865725,5.15911,10.537885772897647
7690941.0,-19.504595,-25.76444,48.130955,57.972617879820206
7690976.8804902965,3.7831876,-10.701085,-4.766673,12.310438663303099
7691013.0,-1.902362,-8.992549,1.4692456,9.30825447275505
7691048.8804902965,-0.96434194,-10.074143,3.6611493,10.76207818028574
7691085.0,-0.30389932,-10.658012,2.5675905,10.967137072387246
7691121.8804902965,11.234703,-10.509652,23.235138,27.86652067514631
7691158.0,-0.73701566,-8.87051,0.9451987,8.951119501250494
7691193.8804902965,2.342657,-8.619255,3.7401154,9.683391026907422
7691230.0,0.16989647,-8.449359,1.6870002,8.617801459548687
7691265.8804902965,-2.60827,-9.58599,0.49054617,9.946603049177225
7691302.0,0.9954498,-9.7415285,2.8236315,10.19123116548852
7691338.8804902965,-1.0002356,-8.975799,0.7489802,9.062362290479255
7691375.0,-1.301742,-9.853995,1.8664683,10.113330490471172
7691410.8804902965,26.970467,22.675198,-2.2110472,35.30523225044584
7691447.0,1.2275618,-9.203125,1.6678569,9.43324781702049
7691482.8804902965,0.22493336,-9.023657,-1.0815945,9.091030047938471
7691519.0,-0.4977249,-10.054999,-1.0792016,10.124989435032688
7691554.8804902965,0.12921704,-9.686492,-0.9858781,9.737390817747327
7691591.0,-0.13639577,-9.626669,-0.9858781,9.677980960391196
7691627.8804902965,0.2057901,-9.195946,0.86623275,9.238946453862939
7691664.0,2.998314,-9.655384,2.1727605,10.341045170601095
7691699.8804902965,1.6295704,-8.839402,4.6542063,10.121865622953104
7691736.0,-9.746315,1.9071478,22.548372,24.638525699819255
7691771.8804902965,1.8066456,-9.688885,4.3622713,10.778120047671953
7691808.0,-0.67001426,-9.294055,0.05025107,9.318310073273185
7691843.8804902965,-0.96194905,-8.877689,-3.1179593,9.458349652659992
7691880.0,1.3065279,-10.337363,3.278284,10.923151327886261
7691916.8804902965,1.301742,-11.031306,5.0945015,12.220400559462126
7691953.0,-1.7540016,-7.4563017,2.9002047,8.190491069290507
7691988.8804902965,-3.3716075,-5.7190504,-1.7803236,6.8734872322943446
7692025.0,4.2904844,-7.441944,5.1423593,10.011725428520094
7692060.8804902965,-78.40124,78.36774,-78.36774,135.7562513439171
7692097.0,1.3735292,-16.554138,2.1177237,16.745471658207727
7692132.8804902965,0.20100428,-5.2739697,3.438609,6.29914208221861
7692169.0,-0.70830077,-10.981055,1.2538838,11.075083903867727
7692205.8804902965,-19.803707,-24.472271,78.40124,84.48569874468039
7692242.0,12.825988,-16.59721,3.5008245,21.265679395214352
7692277.8804902965,2.0626867,-8.037778,-0.69872916,8.327591130613653
7692314.0,-1.8186102,-8.837009,-4.663778,10.15632297433028
7692349.8804902965,-0.6652284,-9.030835,-3.7568657,9.803700806798831
7692386.0,0.39482984,-9.270126,-1.8473251,9.460641452011613
7692421.8804902965,1.0504867,-8.478073,0.05025107,8.543053860900214
7692458.0,5.0897155,-11.359135,-2.2995846,12.657931946085128
7692493.8804902965,-6.326849,5.960734,20.796764,22.54029194485406
7692530.0,1.8425392,-10.086107,2.2014754,10.486705824795068
7692565.8804902965,-0.9691278,-10.399578,-1.4094229,10.539302831869916
7692602.0,-0.2632199,-9.2485895,-3.1706033,9.780512141050547
7692637.8804902965,-1.4094229,-9.440022,-1.1294526,9.611251294559683
7692674.0,0.08135887,-10.354114,-1.8880045,10.525153537252741
7692710.8804902965,-1.0289505,-9.9425335,-1.4716384,10.103387110787503
7692747.0,-1.2849916,-9.4137,-0.36372203,9.507956921293758
7692782.8804902965,-78.40124,16.84368,78.40124,112.1481984831571
7692819.0,-2.4599094,-11.797037,-1.1916683,12.109554474579246
7692854.8804902965,0.2967206,-9.193553,0.33979294,9.204614012567133
7692891.0,-0.6389065,-8.944691,-2.318728,9.262407793830244
7692926.8804902965,0.8877689,-7.8248096,1.4596739,8.009146445808105
7692963.0,-0.088537596,-9.4495945,0.7106937,9.47669566122894
7692999.8804902965,-5.7812657,-7.7219143,2.8308103,10.053083134299003
7693036.0,-1.5577831,-7.903775,1.0863802,8.128749557971549
7693071.8804902965,-1.328064,-8.451752,0.7346228,8.586939880765433
7693108.0,-4.5848117,-13.656326,9.645813,17.336592703691863
7693143.8804902965,-0.46901,-7.099758,2.2924058,7.47540356037971
7693180.0,-0.014357449,-5.8554463,2.368979,6.316527448762213
7693215.8804902965,-1.7803236,-13.220818,5.90809,14.589897469068825
7693252.0,-4.8528175,-11.909504,-2.6848428,13.13752275259815
7693288.8804902965,-2.914562,-7.7386646,2.3522286,8.597358945036268
7693325.0,-3.1131735,-7.7506294,-0.1196454,8.353347853345255
7693360.8804902965,-3.1825678,-8.975799,0.7992313,9.556802611799489
7693397.0,-4.7331724,-6.695357,0.16271774,8.201048920015138
7693432.8804902965,-2.4024796,-8.710185,-2.1823323,9.295257136317662
7693469.0,-1.9621847,-9.303627,-1.2179902,9.585986870392592
7693504.8804902965,-2.866704,-9.227054,-2.2995846,9.931999127823621
7693541.0,-3.0940301,-9.760673,-1.5721406,10.359313960818225
7693577.8804902965,-3.6922572,-9.731957,-2.1177237,10.622076254214264
7693614.0,-0.96434194,-8.2124605,0.31107804,8.27473458113754
7693649.8804902965,-2.732701,-7.312727,6.7838945,10.342381520668257
7693686.0,-11.395028,-3.5582542,3.3883579,12.409222591729671
7693721.8804902965,-3.2878556,-8.9973345,-1.1725249,9.650742831122463
7693758.0,-3.022243,-9.308413,-1.0552725,9.843480348884446
7693794.8804902965,-4.2785196,-9.250982,-3.4816813,10.770724330641736
7693831.0,-4.735565,-8.583362,-1.7228938,9.953293029864408
7693866.8804902965,-4.1732316,-9.181588,-0.75376606,10.113633543993497
7693903.0,-3.5271466,-7.8511314,-0.61497736,8.62897586920198
7693938.8804902965,1.4501023,7.2217965,10.720228,13.00693775413189
7693975.0,-4.8576035,-8.88726,0.2919348,10.13237030503047
7694010.8804902965,-2.7135577,-7.597483,0.45465255,8.080337385761798
7694047.0,-1.9717562,-7.4395514,0.002392908,7.696411714006021
7694083.8804902965,-9.286877,-12.019577,-6.166524,16.393362495675927
7694120.0,-12.782915,-8.377571,-17.358156,23.12773641058722
7694155.8804902965,-3.7042217,-10.0430355,0.5623334,10.719143590313859
7694192.0,-4.5919905,-8.2124605,0.62454903,9.429790332081858
7694227.8804902965,-6.9585767,-10.681942,2.2732627,12.949648562194968
7694264.0,-9.913818,-9.361056,19.942495,24.158151079858843
7694299.8804902965,-1.7587874,-5.941591,5.068179,8.005140542533951
7694336.0,-26.575638,-19.889853,-21.926216,39.78227916481544
7694372.8804902965,-12.581911,-8.839402,-10.098072,18.3959389607247
7694409.0,-6.1569524,-7.884632,-0.8255533,10.037779778538212
7694444.8804902965,-5.6568346,-6.8867893,-0.22014755,8.914937436579274
7694481.0,-10.552725,-8.937511,3.4960387,14.263989427668674
7694516.8804902965,-5.673585,-5.410365,2.6345918,8.270591885595445
7694553.0,-3.8573678,-6.271812,1.2562767,7.469480788835575
7694588.8804902965,-6.0995226,-6.4488873,-2.8308103,9.31696357782932
7694625.0,-7.453909,-7.185903,-5.747765,11.84207599202585
7694661.8804902965,-8.078458,-7.217011,-3.874118,11.504586985624863
7694698.0,-6.3938503,-6.6163907,-2.0172215,9.419507956040954
7694733.8804902965,-5.5587254,-6.58289,-1.6439278,8.771337836175164
7694770.0,10.311041,-9.384986,-0.416366,13.94879526589422
7694805.8804902965,-6.9394336,-10.708263,-2.4000869,12.983953646464146
7694842.0,-6.929862,-5.958341,0.9164838,9.185028980193119
7694878.8804902965,-6.7838945,-4.139731,-0.2967206,7.952775644638519
7694915.0,-7.810452,-4.711636,-0.9140909,9.16723711999765
7694950.8804902965,-10.177038,-4.625491,1.3472073,11.259761851553446
7694987.0,-29.011618,17.166723,56.52049,65.80984840718563
7695022.8804902965,-9.6003475,-1.251491,4.0057282,10.477535982095814
7695059.0,-7.836774,-3.3333209,0.79205257,8.552976220187709
7695094.8804902965,-8.466109,-1.9621847,-1.196454,8.772495230600645
7695131.0,-10.059786,-2.9743848,-2.835596,10.86677799439572
7695166.8804902965,-10.629298,-1.4788172,-0.9404129,10.77280152542997
7695203.0,-10.086107,-3.4170728,-0.62454903,10.667520912884248
7695238.8804902965,-7.63577,-1.0768087,1.3089207,7.8216222018315475
7695275.0,-9.0978365,-4.63267,11.359135,15.27292402449044
7695310.8804902965,-10.801587,-1.3878866,12.701556,16.73110981836425
7695347.0,-9.076301,-2.5293038,-0.5431901,9.437779031108615
7695382.8804902965,-8.255533,-2.9193478,-0.64129937,8.779959087229065
7695419.0,-9.978427,-1.5434257,-0.8710185,10.134586400692026
7695455.8804902965,-10.1435375,-0.9188767,-0.6389065,10.205091323425352
7695492.0,-10.894911,-2.8499537,-2.1942968,11.473284631549717
7695527.8804902965,-6.539818,0.21296883,1.8927903,6.8115512414904185
7695564.0,-11.000198,-4.9533195,-1.1366314,12.117411482975653
7695599.8804902965,-11.7755,-4.084694,2.3618002,12.685630670501014
7695636.0,-9.17441,-2.1727605,-0.035893623,9.4282541008732
7695671.8804902965,-8.628826,-1.7946811,0.598227,8.833764425911651
7695708.0,-8.770008,-3.3931437,-0.7106937,9.43035259277899
7695744.8804902965,-9.274912,-2.6345918,-0.52165395,9.655940627609608
7695781.0,-9.095444,-2.9002047,-0.99784267,9.598644636255205
7695816.8804902965,7.0447216,1.5458187,11.959755,13.966151851344065
7695853.0,-12.146401,-5.123216,-1.9669704,13.328592273377303
7695888.8804902965,-7.468266,-0.68915755,3.201711,8.154807692582272
7695925.0,-8.193317,-2.885847,-4.051193,9.584921548617235
7695961.8804902965,-9.4137,-3.3620358,-2.0196145,10.19803290537405
7695998.0,-39.43273,24.838387,66.43431,81.15049728246136
7696033.8804902965,-10.902089,-2.8092742,-1.0600582,11.308018813306505
7696070.0,-7.659699,-3.409894,2.5891266,8.775075065927616
7696105.8804902965,-6.551782,-1.6415349,3.3692145,7.547985860509561
7696142.0,3.0677083,-19.480665,-11.060021,22.610422543078553
7696177.8804902965,-10.559903,-3.749687,1.2562767,11.276078002317158
7696214.0,-8.293819,-1.7755378,0.859054,8.525135885069858
7696250.8804902965,-8.207675,-3.3165705,-0.9021264,8.898280779379363
7696287.0,-7.5950904,-3.175389,-0.39482984,8.241625087811723
7696322.8804902965,1.9095407,-3.5773976,32.502872,32.75485929632161
7696359.0,-8.437394,-2.1464386,1.4620669,8.828049376554345
7696394.8804902965,-10.918839,-1.4692456,2.371372,11.269566668839772
7696431.0,-23.725683,-21.21313,-19.128908,37.132466111017365
7696466.8804902965,-8.87051,-4.979642,-2.3067634,10.43091268738472
7696503.0,-6.987292,-4.402951,-3.4027152,8.932339992072404
7696539.8804902965,-17.800844,6.424958,2.3761578,19.073443797715214
7696576.0,-6.475209,-3.9124048,-0.6795859,7.595859392341518
7696611.8804902965,-5.723836,-4.1804104,0.15553902,7.089592516785907
7696648.0,-7.2529044,-6.1282377,-3.3668218,10.074492968690578
7696683.8804902965,-9.172017,-5.8434815,-4.462774,11.755361485901114
7696720.0,-6.6786065,-5.4701877,-0.66044265,8.658113117129654
7696755.8804902965,-12.624983,-4.3646646,-4.8336744,14.205805187528004
7696792.0,-16.657034,-0.90691215,-6.7049284,17.978746790977954
7696828.8804902965,-7.5400534,-6.8891826,0.5886554,10.230335153402526
7696865.0,-4.4340587,-4.524989,0.7513731,6.3797306793132185
7696900.8804902965,-5.9176617,-4.967677,4.0559793,8.726253655149177
7696937.0,-10.375649,-4.0248713,-3.4745026,11.658724178492749
7696972.8804902965,-2.9480627,-5.520439,2.5699832,6.765436725307135
7697009.0,-4.29527,-5.4534373,-0.78487384,6.986082571988943
7697045.8804902965,-1.225169,-8.411072,-5.915269,10.355557860883499
7697082.0,-8.545074,-5.6089764,-1.9119335,10.398768947796427
7697117.8804902965,-7.5615897,-4.345521,-1.2706342,8.81338203091167
7697154.0,-7.992313,-5.826731,-3.2519622,10.411681871175224
7697189.8804902965,-19.67449,-7.468266,-5.5946193,21.77522259171622
7697226.0,-6.200025,-4.0607653,0.21057591,7.414476855192241
7697261.8804902965,-4.314413,-6.257455,0.069394335,7.6009682399891725
7697298.0,-13.333283,-5.6065836,-7.839167,16.45183134109291
7697334.8804902965,-8.408679,-3.6563635,2.3450499,9.464361341509697
7697371.0,-8.315355,-4.314413,-3.0318146,9.846379440147894
7697406.8804902965,1.4668527,-1.7731448,6.221561,6.633514950762177
7697443.0,-10.401972,-2.605877,-3.3022132,11.22034885581403
7697478.8804902965,-6.2407045,-3.3668218,-0.75376606,7.130921747045287
7697515.0,-6.8963614,-3.804724,-0.09810923,7.876887119706436
7697550.8804902965,-8.832224,-4.307235,-4.2665553,10.712793672024077
7697587.0,-3.6276486,-2.967206,3.464931,5.828369638782269
7697623.8804902965,-10.07175,-1.7683591,-1.4548881,10.32879186316456
7697660.0,-11.658248,-2.9911351,-2.010043,12.202536968917777
7697695.8804902965,-8.786758,-1.2012398,-0.42115182,8.878483094715977
7697732.0,-6.8293595,-1.5218896,-4.9150333,8.550663803175592
7697767.8804902965,22.500515,-73.31392,-78.36774,109.64810401342663
7697804.0,-8.47568,-1.6223917,3.62047,9.35826422535338
7697839.8804902965,-6.8891826,-1.9334698,0.25125536,7.159767567427279
7697876.0,-8.049743,-2.057901,0.27039862,8.313027986573116
7697912.8804902965,-24.7666,-7.106937,-9.272519,27.383802469476915
7697949.0,-10.428293,-2.5508401,5.017928,11.850556169345008
7697984.8804902965,-9.119372,-1.4046371,-2.8714898,9.663405441591719
7698021.0,5.443866,-28.863258,60.303677,67.07649960396598
7698056.8804902965,-11.277776,-1.7659662,-1.6678569,11.53640389222725
7698093.0,-5.8674107,-2.7518444,3.4051082,7.320786691196042
7698128.8804902965,-30.356432,-30.27268,-28.64311,51.559440150423704
7698165.0,-12.581911,-4.613527,-1.2610626,13.460289546394193
7698200.8804902965,-10.669977,-2.969599,0.9404129,11.115363413933725
7698237.0,-9.078693,-4.819317,-4.0918727,11.06308750429749
7698272.8804902965,-33.29014,-0.016750356,1.1366314,33.30954266773251
7698309.0,-6.3603497,-2.761416,-1.8066456,7.16543334037415
7698344.8804902965,-2.1942968,-4.6207056,3.201711,6.034634373007415
7698381.0,-8.224425,-1.5984626,-5.0873227,9.801892751818857
7698417.8804902965,-7.7123427,-3.3404996,-1.2825987,8.502013110145452
7698454.0,-9.461558,-2.629806,-0.5623334,9.836319344030853
7698489.8804902965,-19.093014,-7.3079414,0.12682413,20.4441990664829
7698526.0,-18.683826,-11.78268,77.64269,80.72362858802109
7698561.8804902965,-4.065551,-1.5601761,8.222033,9.304014243846643
7698598.0,-7.970777,-2.3330853,0.5695121,8.324717234408116
7698633.8804902965,-9.4998455,-1.1414171,-4.4986672,10.57297990617586
7698670.0,-9.351485,-1.6439278,0.4115802,9.503797587168505
7698706.8804902965,-11.727643,-1.4022441,-3.48886,12.315682804905046
7698743.0,-10.763301,-2.1296883,-0.99784267,11.017255133009794
7698778.8804902965,-8.858545,-1.0504867,1.0863802,8.98652122697398
7698815.0,-5.3194346,3.988978,6.590069,9.361481686833669
7698850.8804902965,-9.705635,-1.2945633,2.3546216,10.070724292230347
7698887.0,-11.004984,-1.117488,0.6819788,11.082578551675123
7698922.8804902965,-10.875768,-1.0744157,-0.6652284,10.94893727767207
7698959.0,-9.475916,0.7776951,-0.70830077,9.534122072241502
7698995.8804902965,-4.967677,-3.0748868,-5.7693014,8.210821046228276
7699032.0,-7.733879,-0.38765112,5.259612,9.360912144017924
7699067.8804902965,-9.4137,1.3256711,-0.4115802,9.515489993500454
7699104.0,-28.875221,18.592896,-33.460033,47.948388688534116
7699139.8804902965,-13.60129,9.607526,-13.369178,21.35496583702395
7699176.0,-6.020557,-3.802331,4.1564813,8.245069097409658
7699212.8804902965,-10.256004,-12.993491,-18.683826,24.962006738509086
7699249.0,-15.321791,3.5462897,-7.9444547,17.61952923787577
7699284.8804902965,-9.179195,0.6101916,2.3115492,9.485421147253094
7699321.0,-9.923389,0.13400285,-3.4553592,10.508620899535474
7699356.8804902965,-15.7908,-0.03828653,20.684298,26.022894040655498
7699393.0,-8.23639,0.30150643,-0.50968945,8.25765158473477
7699428.8804902965,-8.013849,-1.5697477,-3.6802926,8.957144481254673
7699465.0,-2.2325833,-2.5484471,-3.984192,5.229990124828277
7699501.8804902965,-12.435944,0.832732,-9.617098,15.742767218521779
7699538.0,-8.348856,-0.2584341,-5.281148,9.882343289457355
7699573.8804902965,-8.296212,1.430959,-1.8784329,8.62573401910976
7699610.0,3.2519622,1.2371335,-2.6226273,4.357055359041973
7699645.8804902965,-7.965991,7.449123,-2.0387578,11.095178207143446
7699682.0,-10.588618,1.0792016,-4.625491,11.605114141379548
7699717.8804902965,-7.310334,0.15314612,-1.1653463,7.4042196701982546
7699754.0,-8.844189,0.27279153,-2.8595252,9.298977290863538
7699790.8804902965,-25.625652,-20.21768,-7.3294773,33.45369729190959
7699827.0,-7.839167,1.7324655,-0.14118157,8.02956463317202
7699862.8804902965,-11.990863,2.1464386,-8.872903,15.070381607502444
7699899.0,-9.729565,1.5577831,-2.5053747,10.16700672092188
7699934.8804902965,-24.99871,8.552254,-6.250276,27.15036832569297
7699971.0,-12.414407,9.231839,0.7130866,15.487183248824481
7700006.8804902965,-7.985134,0.7681235,-0.95237744,8.078329127822734
7700043.0,-7.7171288,-0.18664683,0.27518442,7.72428899122432
7700079.8804902965,-7.291191,0.035893623,-3.4051082,8.047205502804083
7700116.0,-8.241176,15.886517,-31.47392,36.20643650541523
7700151.8804902965,-12.47423,2.421623,-6.2813835,14.174852758357005
7700188.0,-8.028207,2.3115492,-1.5051392,8.488863961110832
7700223.8804902965,-12.682413,2.5197322,0.49293905,12.939692375373564
7700260.0,-6.350778,4.5919905,20.193752,21.661172124215213
7700296.8804902965,-7.3893003,3.4745026,2.000471,8.406890713148819
7700333.0,-7.8248096,3.926762,-3.933941,9.598072560278817
7700368.8804902965,-7.255297,4.194768,-2.4670882,8.736242746090118
7700405.0,3.098816,0.8518753,-1.8377534,3.702119620949281
7700440.8804902965,-9.576418,3.0748868,-0.650871,10.079005089897477
7700477.0,-6.269419,2.4766598,-0.43311638,6.754779653039864
7700512.8804902965,12.560374,18.994904,-77.48954,80.76631836601624
7700549.0,-9.368236,4.271341,0.2680057,10.299515850039239
7700585.8804902965,-8.657541,2.8212388,0.009571632,9.105629915027603
7700622.0,-7.5209103,2.4934103,1.5338541,8.070557295805475
7700657.8804902965,-9.164838,3.5103962,-0.15553902,9.815361910493214
7700694.0,-7.496981,4.9844275,-3.773616,9.761629952655102
7700729.8804902965,-10.172253,2.7566302,-5.0825367,11.700680341860807
7700766.0,-9.509417,2.7422726,1.1988469,9.969268006340252
7700801.8804902965,-3.6252558,4.216304,0.34697166,5.571363241495998
7700838.0,-1.8832186,5.9056973,12.672841,14.107610425082422
7700873.8804902965,-8.566611,1.8186102,2.3211207,9.059898917142151
7700910.0,-8.559432,7.65252,8.406286,14.22991858117326
7700945.8804902965,-10.78723,5.051429,-2.9025974,12.259948518710335
7700982.0,-10.966698,4.687707,-1.849718,12.069155671403736
7701017.8804902965,-5.888947,2.3378713,-4.6757426,7.874510006700573
7701054.0,2.81406,-11.569711,9.976034,15.533782561767657
7701089.8804902965,-8.79633,3.0796728,-2.627413,9.68313508614482
7701126.0,-10.14593,5.2643976,2.627413,11.728472906919928
7701162.8804902965,-14.216267,9.614705,-3.280677,17.473054719500052
7701199.0,-7.6644845,2.450338,-0.60540575,8.069386289372774
7701234.8804902965,-7.822417,2.5628045,1.2323477,8.323271921594568
7701271.0,-11.196417,-7.3845143,-18.375141,22.749431022658005
7701306.8804902965,-9.54531,2.7733805,-1.0911661,9.999761289734344
7701343.0,-9.107409,2.2780485,-0.8638398,9.427652033337745
7701379.8804902965,-8.23639,3.098816,-0.6867646,8.82680159796113
7701416.0,-4.922212,-7.379729,20.212894,22.0737322386048
7701451.8804902965,-9.67692,2.9289196,-0.4977249,10.122701259335088
7701488.0,-8.657541,1.2873845,0.11246668,8.753457818007206
7701523.8804902965,-29.676846,4.5704546,-25.79555,39.58553578721497
7701560.0,-11.122237,2.1177237,-3.802331,11.943476486654616
7701595.8804902965,-8.114351,2.6441634,0.17228939,8.536039823654006
7701632.0,-10.849445,4.216304,0.78487384,11.666349179291581
7701668.8804902965,-1.4859959,-1.9047549,0.25604117,2.4293686679106137
7701705.0,-12.25169,8.219639,6.551782,16.14286903006851
7701740.8804902965,-8.363214,3.3500714,-1.9071478,9.208883728549232
7701777.0,-7.4132295,2.7662017,-1.2825987,8.015790846198199
7701812.8804902965,-7.207439,2.108152,-0.95237744,7.56957756959039
7701849.0,-5.5826545,4.50106,-5.1327877,8.818791411709517
7701884.8804902965,-10.1842165,3.5821834,-2.759023,11.142823320175044
7701921.0,-8.432608,3.8214743,-2.9863493,9.727837665629242
7701957.8804902965,-63.78536,-39.693558,-32.68234,81.92854230916454
7701994.0,-8.834617,4.034443,1.1055236,9.774935820101069
7702029.8804902965,-7.918133,3.0030997,1.1462029,8.545713492845259
7702066.0,-9.789387,4.6398487,-1.6439278,10.957316843382486
7702101.8804902965,-13.646755,6.9466124,1.4788172,15.384285689523406
7702138.0,-11.878396,7.4778376,-0.61497736,14.049645684432841
7702173.8804902965,-8.557039,3.3716075,0.74658734,9.227569898831735
7702210.0,-3.9482985,5.104073,2.8906329,7.070811890935414
7702246.8804902965,-1.222776,0.16750357,-2.9576344,3.2048151017183666
7702283.0,-8.133494,2.5963054,3.3213565,9.161109942479538
7702318.8804902965,-8.880082,3.979406,-0.016750356,9.73097163771358
7702355.0,-9.58599,3.7544727,1.5027462,10.40411051828842
7702390.8804902965,-9.28209,5.1686816,-4.874354,11.688960226110558
7702427.0,-9.66017,3.615684,-0.6197632,10.333255132862552
7702463.8804902965,-15.745336,0.107680865,-4.5991693,16.403644691703292
7702500.0,-4.326378,6.7527866,9.947319,12.777590882157112
7702535.8804902965,-8.157424,2.658521,1.2490981,8.670152610343177
7702572.0,-7.84156,1.5338541,0.86623275,8.036985181699626
7702607.8804902965,-10.136358,1.6415349,-3.0916374,10.723740585502838
7702644.0,-4.216304,1.5051392,-10.926019,11.80764814093618
7702679.8804902965,-12.048292,1.0983448,-3.9482985,12.726223417104277
7702716.0,-10.002356,1.2586696,0.87819725,10.119417232361148
7702752.8804902965,-4.83846,-0.2991135,9.662563,10.810424958642988
7702789.0,-10.157895,3.9985495,0.16511066,10.917806119592932
7702824.8804902965,-5.7860518,1.4237803,1.6941789,6.1948194420948655
7702861.0,-8.525931,2.4288018,-6.6738205,11.096416433545764
7702896.8804902965,-15.5251875,3.9482985,-5.518046,16.943120716484742
7702933.0,-4.618313,-6.925076,1.119881,8.398787175890694
7702968.8804902965,-5.6137624,-2.4599094,-2.5460541,6.63685723968724
7703005.0,-78.40124,30.698618,78.40124,115.04744244956132
7703041.8804902965,-9.329948,-2.6250203,1.3472073,9.785378314980436
7703078.0,-9.705635,0.8159817,-2.395301,10.030086927268421
7703113.8804902965,-11.134201,1.9358627,-0.5838696,11.316311236947154
7703150.0,-7.6190195,-1.6104271,-2.2947989,8.118438001071134
7703185.8804902965,-7.317513,-0.5144752,1.5745336,7.502655349548784
7703222.0,-7.9755626,0.21057591,-1.6606783,8.149343127914173
7703257.8804902965,-11.299312,0.8279462,-3.256748,11.788399133001157
7703294.0,-9.856388,0.052643977,-2.5101607,10.171138703934918
7703329.8804902965,-12.981526,3.256748,4.16366,14.016507746931115
7703366.0,-15.27154,7.985134,-2.1942968,17.372312379647283
7703401.8804902965,-5.329006,1.9191123,3.773616,6.805988148939379
7703438.0,-8.044957,2.3737648,2.6010911,8.78189998622549
7703473.8804902965,-11.165309,0.3326142,-4.1253734,11.907706032689513
7703510.0,-10.562296,3.5917552,-2.3881223,11.409028456801233
7703546.8804902965,-9.090658,2.2110472,0.89734054,9.39861759187591
7703583.0,-7.243333,7.4347653,2.9265265,10.784533618575043
7703618.8804902965,-17.257652,-78.07341,-78.36774,111.95886107981272
7703655.0,-10.208146,1.3472073,1.8688612,10.464886738582253
7703690.8804902965,-8.712579,-3.0892444,-0.16032484,9.245440381533665
7703727.0,-10.641262,0.48097453,1.6726427,10.78264935222397
7703762.8804902965,-9.083479,-0.911698,0.93562704,9.176937503580602
7703799.0,-10.124394,0.64129937,1.3472073,10.233747420098451
7703835.8804902965,-15.764479,1.8592896,-0.6101916,15.885467879380188
7703872.0,-10.93559,-0.9786994,1.3137065,11.05761303047826
7703907.8804902965,-5.305077,0.6460852,0.6532639,5.384052542892876
7703944.0,-14.412485,5.6879425,9.930569,18.403494625268657
7703979.8804902965,-10.2847185,-0.110073775,-0.12443122,10.286060178158385
7704016.0,-14.032013,-0.61497736,1.6104271,14.13750548823575
7704051.8804902965,-11.919075,0.25604117,0.10050214,11.922248387636643
7704088.0,-11.1294155,0.031107806,-0.33979294,11.134644866779912
7704124.8804902965,-3.8860826,5.1662884,0.68915755,6.5013161694167225
7704161.0,-9.844424,4.4364514,1.225169,10.867190253000034
7704196.8804902965,-8.365606,-0.07896597,0.7059079,8.395707554157449
7704233.0,-8.686256,1.4237803,1.8090385,8.986145666229007
7704268.8804902965,-10.811159,1.8784329,-4.4651666,11.84683003376173
7704305.0,-8.88726,0.68915755,-2.627413,9.293095690290238
7704340.8804902965,0.5838696,-2.8164527,-26.223879,26.381151213087392
7704377.0,-10.6364765,4.065551,3.050958,11.788625110097328
7704413.8804902965,-9.739136,1.2586696,0.110073775,9.820750247532157
7704450.0,-13.347641,0.6748001,-1.5960697,13.459655044877602
7704485.8804902965,-21.703676,13.093993,-38.126205,45.783290754368565
7704522.0,-12.072222,-0.8040171,5.3457565,13.227323995112112
7704557.8804902965,-10.648441,-0.5025107,-0.98827106,10.706002635070151
7704594.0,-48.437244,-7.205046,33.938614,59.581111221750874
7704629.8804902965,-10.504867,1.8927903,4.0727296,11.424623066087532
7704666.0,-8.901618,0.043072347,0.5886554,8.92116435365638
7704702.8804902965,-8.767615,17.858273,-12.091365,23.280680722306617
7704739.0,-17.915703,2.7949166,-5.0083566,18.811369131935297
7704774.8804902965,-10.162681,-1.2945633,2.759023,10.609815604429555
7704811.0,-12.828381,-3.5726118,-0.31586388,13.320310962787202
7704846.8804902965,-11.462029,3.8932614,0.18425392,12.106590875742285
7704883.0,-9.222268,-0.92366254,0.6221561,9.28926572794591
7704919.8804902965,-9.205518,-5.178253,3.7353296,11.203059983815544
7704956.0,1.1653463,-9.581204,0.99305683,9.702765788997967
7704991.8804902965,-11.665427,0.28714898,1.7803236,11.803990585804488
7705028.0,-11.184452,-0.057429794,1.7611804,11.32241233672785
7705063.8804902965,-8.588147,-1.2897775,-2.5125535,9.040615022412883
7705100.0,-17.394049,2.6321988,-0.832732,17.611781673667952
7705135.8804902965,-10.401972,-0.18664683,1.0050215,10.452077628079277
7705172.0,-9.566847,1.3400285,-1.2634555,9.74251290492866
7705208.8804902965,-11.225132,0.45943835,-1.4979604,11.33395594551359
7705245.0,-6.6044264,-1.1533817,0.7418015,6.745295166581972
7705280.8804902965,-11.311276,-0.6652284,-6.6307483,13.12837829247373
7705317.0,-11.038485,0.42593765,0.75376606,11.072386249138912
7705352.8804902965,-12.199045,1.1797037,0.8614469,12.286191049032988
7705389.0,0.55754757,-53.14649,78.40124,94.71860795086947
7705424.8804902965,-11.191631,3.3165705,3.543897,12.198829872911592
7705461.0,-9.784601,0.016750356,0.2680057,9.788285057090421
7705497.8804902965,-11.919075,-2.7949166,-0.7441944,12.26497994134405
7705534.0,-21.864,-6.1808815,6.5661397,23.650623304195566
7705569.8804902965,-13.125101,0.99784267,2.1392598,13.335681412892624
7705606.0,-1.9645776,-0.45943835,0.026321989,2.0177565737663694
7705641.8804902965,-10.019106,2.7470584,7.5591965,12.84796741192391
7705678.0,-60.648254,-28.920687,-8.659934,67.74667007820267
7705713.8804902965,-6.6809993,-0.703515,2.7685947,7.2660719522100505
7705750.0,-11.887967,0.93323416,-0.3326142,11.929179250749883
7705785.8804902965,-10.837481,0.92366254,1.9502201,11.050226484176886
7705822.0,-9.698457,0.2057901,2.1272953,9.931153157589963
7705857.8804902965,-18.683826,-5.910483,-13.905189,24.028596388829833
7705894.0,-13.98894,1.5027462,1.5506045,14.15461277395587
7705929.8804902965,-12.299547,-0.8805902,5.056215,13.327400557939647
7705966.0,-9.1983385,0.39961565,-0.8566611,9.246782795576005
7706002.8804902965,-11.718071,1.7922882,9.47113,15.173258991719617
7706039.0,-8.643184,-0.016750356,3.4218585,9.29591446960999
7706074.8804902965,-9.253376,-0.7226582,0.22014755,9.284162170878654
7706111.0,-12.493373,0.9834852,2.4168372,12.762943003361407
7706146.8804902965,-10.669977,2.1296883,3.8334389,11.535997366319009
7706183.0,-3.8621538,0.2680057,-4.393379,5.8557525620306
7706218.8804902965,-6.6474986,-0.016750356,6.6786065,9.423019844681976
7706255.0,-9.626669,-0.035893623,4.76428,10.741154886981803
7706291.8804902965,-8.971012,-0.6006199,1.926291,9.195129014054181
7706328.0,-10.107644,-1.8449322,1.6343563,10.403814808457643
7706363.8804902965,-9.578811,-0.87819725,1.8305746,9.791621620027692
7706400.0,-4.6039553,-8.2124605,14.826459,17.56316595455214
7706435.8804902965,-13.625218,1.7109293,3.0557437,14.068099167165839
7706472.0,-10.926019,-0.39004403,1.74443,11.071271903381275
7706507.8804902965,-11.454851,0.10289505,2.031579,11.634066875205614
7706544.0,18.992512,-1.9550059,-46.341057,50.120166839471196
7706580.8804902965,-10.351721,1.0433079,3.5223608,10.984245292300242
7706617.0,-9.329948,0.47618872,0.30389932,9.347033763523896
7706652.8804902965,-10.421115,-2.8212388,1.1868824,10.86129439989913
7706689.0,-14.005692,2.7255223,-6.817395,15.81343589460198
7706724.8804902965,-11.136594,2.187118,2.579555,11.638784947956767
7706761.0,-10.177038,4.4867024,-1.2036327,11.187105638015538
7706796.8804902965,-5.460616,3.4075012,1.2993491,6.566406902646854
7706833.0,-21.339954,7.872668,4.6278844,23.21184723756606
7706869.8804902965,-13.041349,-0.1459674,0.7106937,13.061515063608947
7706906.0,-10.102858,1.5266753,0.8255533,10.25085437858401
7706941.8804902965,-1.1653463,8.480466,-0.8446966,8.601735169262726
7706978.0,-12.043507,0.24168372,2.9480627,12.401433205992497
7707013.8804902965,-6.9107184,-0.7106937,2.6680925,7.441897065122206
7707050.0,-9.538132,2.371372,-0.22732627,9.831126306016015
7707086.8804902965,-10.344542,0.73701566,3.256748,10.87010344055443
7707123.0,-10.375649,1.4453164,4.1995535,11.286243009375273
7707158.8804902965,-11.923861,1.5769265,1.9143264,12.179072374341988
7707195.0,-9.416093,2.7662017,-2.4646955,10.118764901777892
7707230.8804902965,2.0483294,-6.618784,-68.054306,68.40608540262478
7707267.0,-10.629298,5.460616,6.867646,13.782774200195547
7707302.8804902965,-9.696064,1.5386399,2.2086542,10.062764193259508
7707339.0,-10.040643,0.2392908,0.49293905,10.05558356573245
7707375.8804902965,-17.597446,-10.97627,14.108586,25.083875453271013
7707412.0,-11.385457,2.5460541,-2.1009734,11.854328821425673
7707447.8804902965,-11.612783,0.8446966,3.1323166,12.05743126183086
7707484.0,-10.205753,2.9313123,3.5726118,11.203282606925503
7707519.8804902965,-8.31057,5.1638956,0.8901618,9.824651623481547
7707556.0,-12.435944,5.652049,4.3120203,14.324520241081343
7707591.8804902965,-10.390007,1.1079165,0.16032484,10.450140117976519
7707628.0,-9.844424,0.94280577,0.7681235,9.919253012347934
7707664.8804902965,-9.341913,1.5290682,1.6199988,9.60384215675277
7707701.0,-10.6963,-0.24407662,-0.7489802,10.725268221654071
7707736.8804902965,-10.258397,0.7968384,1.8640754,10.456789064632064
7707773.0,-11.634319,2.759023,1.014593,11.999957727589667
7707808.8804902965,-10.669977,0.0598227,4.3885937,11.537406233623049
7707845.0,-7.729093,4.730779,-2.132081,9.309399440353335
7707880.8804902965,-6.4943523,1.1342385,12.560374,14.185418703417728
7707917.0,-9.830067,1.3160994,1.2825987,10.000369707186382
7707953.8804902965,-8.703007,2.4048727,-0.83751786,9.067920363075165
7707990.0,-10.100465,3.1466742,3.491253,11.140457766500425
7708025.8804902965,-8.767615,0.3278284,7.9253116,11.823244402665713
7708062.0,-9.418487,3.409894,1.0074143,10.067281561188675
7708097.8804902965,-4.6422415,-0.7059079,0.46661708,4.71873326295865
7708134.0,-11.746786,10.160288,6.1569524,16.707079230930994
7708169.8804902965,-9.368236,2.0148287,2.4623024,9.893751237578467
7708206.0,-9.753493,3.2304258,0.5695121,10.29031683586084
7708241.8804902965,-9.552489,7.5639825,4.3048415,12.922675330424019
7708278.0,-9.260554,0.57908374,1.899969,9.471171023997476
7708313.8804902965,-9.564454,0.46901,0.27518442,9.579899642649014
7708350.0,-7.133259,-1.0504867,1.14381,7.3003566751260776
7708385.8804902965,-9.310805,1.9837208,1.9143264,9.71034929990238
7708422.0,-12.840344,1.6870002,3.022243,13.298659949941763
7708458.8804902965,-50.997658,-41.59592,69.81788,95.94539097750223
7708495.0,-8.657541,2.6393776,4.735565,10.21493544528245
7708530.8804902965,-9.289269,1.4261732,2.988742,9.861899781143755
7708567.0,-10.105251,0.16032484,0.45943835,10.116960285815733
7708602.8804902965,-13.70897,-1.4883888,2.4288018,14.001794094491917
7708639.0,-9.779816,0.8542682,2.4551237,10.11939758748953
7708674.8804902965,-11.33042,1.3711363,4.6948857,12.34100416763734
7708711.0,-10.212932,1.9550059,11.93104,15.826425483578369
7708747.8804902965,-8.5642185,3.8071167,3.9171906,10.157970185026608
7708784.0,-5.283541,-0.4115802,3.6300416,6.4235820051933326
7708819.8804902965,-10.875768,2.2732627,-3.3476784,11.604180434777023
7708856.0,-12.2157955,1.1342385,4.469952,13.057282548639533
7708891.8804902965,-3.409894,2.763809,-3.8884757,5.863979924011293
7708928.0,-13.986547,1.5984626,1.0457008,14.116375945331308
7708963.8804902965,-10.069357,4.144517,1.8616825,11.046937733487242
7709000.0,-10.500081,-2.3641932,-1.3256711,10.84428487079081
7709036.8804902965,-4.742744,5.156717,-3.2615337,7.728062690212904
7709073.0,-16.403385,-0.58626246,35.45093,39.06639452259615
7709108.8804902965,-9.030835,5.6400843,11.249061,15.488960749193357
7709145.0,-11.043271,0.13160995,0.39004403,11.050940679585546
7709180.8804902965,-11.339992,3.3763933,3.8860826,12.453798145560722
7709217.0,-2.4838386,-0.6676214,-0.08614469,2.573439999728596
7709253.8804902965,-0.14118157,-3.5558615,6.874825,7.741272635911677
7709290.0,-10.949947,-6.487174,-1.2036327,12.784111133966032
7709325.8804902965,-11.885574,-2.627413,3.0342073,12.544982356361379
7709362.0,-6.8102164,-3.823867,-4.919819,9.230689315607961
7709397.8804902965,-10.674763,-2.495803,-1.0385221,11.011726743484259
7709434.0,-7.542446,-3.6228628,3.22564,8.967629560822628
7709469.8804902965,-12.699163,-12.971954,-13.842974,22.8291099397975
7709506.0,-16.420135,0.33979294,-9.605133,19.02616284509275
7709542.8804902965,-4.78103,-1.9119335,11.081557,12.219437102975377
7709579.0,-10.780051,-4.0440145,-1.9406484,11.676029678415254
7709614.8804902965,-8.789151,0.30629224,5.984663,10.637630443884307
7709651.0,-10.332577,-4.7499228,-4.120588,12.095584298934584
7709686.8804902965,-9.47113,-2.988742,-1.7252867,10.080252795275568
7709723.0,-6.1545596,-0.60779864,7.31512,9.579092006612004
7709758.8804902965,-10.471366,-1.5745336,1.2036327,10.657269520847928
7709795.0,-8.872903,-3.6324344,4.0727296,10.416818790419104
7709831.8804902965,-9.492666,1.5075321,-1.5194967,9.730993322441305
7709868.0,-2.2780485,2.6321988,-1.14381,3.6641884240816123
7709903.8804902965,-14.515381,33.345173,-5.4869385,36.77911556954398
7709940.0,-9.038013,0.58626246,1.9932925,9.273758550379155
7709975.8804902965,-7.130866,1.014593,-0.08135887,7.203142934256732
7710012.0,-11.076772,-0.22732627,-0.040679436,11.079179120743982
7710047.8804902965,-10.394793,-2.445552,-0.019143265,10.67861473048578
7710084.0,-7.9755626,-5.460616,14.374199,17.32182215523459
7710120.8804902965,3.484074,12.756593,-18.927902,23.08971439248933
7710157.0,-10.191396,0.021536173,2.21344,10.429013993142567
7710192.8804902965,-10.58144,0.045465253,1.6893932,10.715548933537498
7710229.0,-8.695828,-0.31825677,0.22971918,8.704681664420285
7710264.8804902965,-10.239254,-1.301742,-0.38765112,10.328946127360586
7710301.0,-9.901854,1.277813,2.500589,10.292349782591243
7710337.8804902965,-13.084421,0.045465253,0.39961565,13.09060092823077
7710374.0,-13.797508,-2.8451676,3.7114005,14.568483083476949
7710409.8804902965,-2.2062612,3.854975,2.708772,5.202486567136377
7710446.0,-10.14593,2.0244002,4.113409,11.133652829864108
7710481.8804902965,-8.569004,1.1677392,2.443159,8.98668294147032
7710518.0,-9.049978,0.46183127,2.4766598,9.394106327233573
7710553.8804902965,-10.100465,-0.77290934,-0.4139731,10.13844937806605
7710590.0,-14.197124,1.0863802,-2.2589052,14.416698807733866
7710626.8804902965,-6.7264647,5.0968943,8.281855,11.82424547727015
7710663.0,-7.9516335,0.25125536,1.0385221,8.023099944936456
7710698.8804902965,-17.607018,11.847288,9.308413,23.173516530424056
7710735.0,-9.6410265,-0.11485959,2.0028641,9.847540266593787
7710770.8804902965,-9.547704,-0.37568656,2.7805593,9.951447235643522
7710807.0,-9.514202,-4.8217096,-0.72505116,10.690866304848898
7710842.8804902965,-10.167466,1.5529974,4.663778,11.29336048387931
7710879.0,-9.518989,-1.1366314,4.761887,10.704141736839809
7710914.8804902965,-11.607997,-0.81119585,-0.24886245,11.638967547771847
7710951.0,-9.95689,1.4955676,1.2897775,10.150857447416746
7710986.8804902965,-7.860703,4.132552,0.6125845,8.901904147796316
7711023.0,-25.22125,-4.400558,-8.238783,26.89523949688779
7711058.8804902965,-9.291662,1.3424214,4.5776334,10.444702268720613
7711095.0,-11.4046,-3.823867,-2.629806,12.312706428374105
7711130.8804902965,-8.918368,0.859054,4.271341,9.92570478588906
7711167.0,-8.4541445,0.46661708,2.9025974,8.950718540581796
7711203.8804902965,-11.787465,1.5458187,-0.12203831,11.889019300539568
7711240.0,-5.2141466,-0.885376,7.394086,9.090859321486807
7711275.8804902965,-24.591917,6.094737,-15.585011,29.74560082943659
7711312.0,-7.887025,2.1584032,-4.194768,9.190209263026563
7711347.8804902965,-9.468738,1.6008555,2.110545,9.832300739987017
7711384.0,-10.1339655,-0.16750357,0.5910483,10.152568753477412
7711420.8804902965,-11.584068,-1.1342385,0.17468229,11.640774987342807
7711457.0,-7.4706593,-0.15075321,-38.72204,39.436402709534775
7711492.8804902965,-8.949476,-0.67001426,11.426136,14.529233416587243
7711529.0,-3.5008245,0.12921704,12.038721,12.538072919674205
7711564.8804902965,-9.088264,0.7322299,3.5199678,9.773580534951705
7711601.0,-10.555118,0.83751786,1.0385221,10.639101480479045
7711636.8804902965,-9.696064,-3.1036017,-0.6556568,10.20175898772977
7711673.0,-6.221561,18.619217,-29.159979,35.15234612725374
7711709.8804902965,-11.131808,-0.7202653,6.0875583,12.708040663577803
7711746.0,-10.916447,-1.978935,0.1172525,11.094987471231784
7711781.8804902965,-9.346699,-0.30868515,1.9621847,9.555429739961756
7711818.0,-3.278284,-6.7551794,-77.82455,78.1859333730393
7711853.8804902965,-10.090894,1.4859959,3.5103962,10.78689978701143
7711890.0,-10.914054,1.4644598,2.4311945,11.277052980170053
7711925.8804902965,-0.62454903,-5.123216,48.85361,49.125478254217846
7711962.0,-10.267968,1.5721406,5.790838,11.892711955539676
7711998.8804902965,-10.31822,-0.5910483,2.3785505,10.605305490290373
7712035.0,-10.744158,-0.78487384,3.4003224,11.296687589626531
7712070.8804902965,-2.4479449,2.8451676,0.9212696,3.8647316312274427
7712107.0,-11.75875,2.3881223,6.781502,13.782601316814661
7712142.8804902965,-10.330184,-0.20100428,1.9478272,10.51413976488301
7712179.0,-10.203361,-5.1447525,-12.136829,16.66972321779274
7712214.8804902965,-9.7415285,0.22971918,4.97007,10.938543971794056
7712251.0,-9.987998,-1.2132044,4.3048415,10.943657035210196
7712287.8804902965,-7.817631,1.6606783,4.63267,9.237685759818413
7712324.0,-6.424958,1.9908996,2.0674727,7.03691764086304
7712359.8804902965,-45.654293,-44.658844,32.78763,71.78966149636788
7712396.0,-7.7458434,-0.7705164,6.824574,10.352130011812473
7712431.8804902965,-8.994942,-2.526911,2.7015932,9.725886417369432
7712468.0,-9.60274,-2.2182257,2.1225095,10.081576629740546
7712504.8804902965,-7.499374,-8.418251,22.218151,24.914931148804683
7712541.0,-9.868353,-0.3278284,5.2452545,11.18054368813189
7712576.8804902965,-11.335206,-3.0126712,6.7025356,13.50877737957854
7712613.0,-10.43308,8.60729,2.3618002,13.729992702664488
7712648.8804902965,-27.398798,2.94567,-12.069828,30.084079702448737
7712685.0,-11.497924,1.5721406,6.432137,13.26824286643538
7712720.8804902965,-20.88291,-6.427351,-4.4388447,22.29596629922146
7712757.0,-10.775265,-0.86623275,0.27997026,10.813652405356944
7712793.8804902965,-10.299076,-1.2419193,2.290013,10.623440569874596
7712830.0,-10.27754,-3.697043,8.813081,14.03447013990945
7712865.8804902965,-9.839638,-1.2036327,-0.9164838,9.955257415216131
7712902.0,-6.0325212,-1.2993491,10.753729,12.398480048681824
7712937.8804902965,-10.423508,-0.026321989,2.4407663,10.705491675041582
7712974.0,-9.964069,-1.1485959,1.5458187,10.14847274379389
7713009.8804902965,-6.0181637,-10.930804,-2.2828343,12.685113434560614
7713046.0,-22.256437,-3.1155663,21.897503,31.377641385860628
7713082.8804902965,-11.79943,-3.048565,4.431666,12.967650535840368
7713119.0,-0.7130866,-0.5814767,7.91574,7.969036792445023
7713154.8804902965,-10.12918,1.040915,4.3024487,11.054178229328343
7713191.0,-9.411307,0.06221561,4.020086,10.234141960993735
7713226.8804902965,-7.9875274,-2.6656997,-5.7956233,10.222318635800479
7713263.0,-8.466109,-2.60827,7.370157,11.523770572058002
7713298.8804902965,-6.013378,0.040679436,-1.7109293,6.252171531315802
7713335.0,-4.395772,-2.7781663,-0.70112205,5.247150807384508
7713370.8804902965,-10.18661,-2.0531151,4.7212076,11.413680655609994
7713407.0,-8.095208,0.39961565,0.99066395,8.16538427098312
7713442.8804902965,-8.174174,-4.012907,2.4168372,9.421339884763146
7713479.0,-3.4673238,-4.0990515,-8.817866,10.323725990535332
7713514.8804902965,-9.70085,-10.251218,-12.763772,19.02913126955637
7713551.0,-3.7472942,-3.5989337,10.2847185,11.522585309842214
7713587.8804902965,-10.509652,-2.658521,3.7161863,11.459954610942082
7713624.0,-8.420644,-2.8547394,0.08614469,8.89180540296871
7713659.8804902965,-8.681471,-5.8721967,0.48336744,10.49210545550244
7713696.0,-5.946377,-3.543897,4.419701,8.212938712917502
7713731.8804902965,-9.239018,-6.539818,6.7719297,13.190439906962546
7713768.0,-8.679078,-5.9009113,3.699436,11.128026591388416
7713803.8804902965,-10.902089,-2.3330853,3.5582542,11.702991264322756
7713840.0,-9.401736,-1.6415349,5.2189326,10.877708128321736
7713876.8804902965,-27.970703,-37.047005,75.13971,88.32223290128218
7713913.0,-9.779816,-2.5412683,3.8860826,10.826101955018883
7713948.8804902965,-8.77958,-4.936569,0.39243692,10.079917916547737
7713985.0,-7.5017667,-4.338342,1.3472073,8.76998759630629
7714020.8804902965,-8.671899,-4.905462,6.877218,12.106259418960466
7714057.0,-9.05955,-2.1560102,0.90451926,9.356387191470594
7714092.8804902965,-7.111723,6.176096,3.9171906,10.20123267192124
7714129.0,-7.5137315,-12.8092375,24.42202,28.582648359903573
7714165.8804902965,-9.30602,-2.7901309,10.229682,14.107913825249247
7714202.0,-9.325163,-1.9932925,1.1079165,9.599966611301182
7714237.8804902965,-8.624041,-3.22564,1.7563945,9.373566995488497
7714274.0,-10.339756,-3.1418884,3.2352118,11.280452661504759
7714309.8804902965,-6.477602,-2.914562,3.7544727,8.03430548195009
7714346.0,-5.3385777,-5.0921082,-2.1799393,7.692991169313079
7714381.8804902965,-9.67692,-2.0411506,3.5032175,10.49197833159155
7714418.0,-10.827909,-3.3117847,0.2368979,11.325530973268297
7714454.8804902965,-10.59819,-4.680528,1.4596739,11.677312256218263
7714491.0,-8.559432,-2.8930259,2.7709875,9.450494523878158
7714526.8804902965,-8.097601,-0.2919348,0.54558307,8.121208578094928
7714563.0,-15.908053,-2.184725,3.4768956,16.429484976399394
7714598.8804902965,-9.839638,-2.395301,2.057901,10.333968229941778
7714635.0,-7.2289753,0.7154795,2.160796,7.578854409245921
7714671.8804902965,-8.915976,-6.7145,1.40703,11.249838741220962
7714708.0,-8.860939,-2.5675905,3.0916374,9.729695922817424
7714743.8804902965,-8.231604,-1.0552725,2.3474429,8.624580722031226
7714780.0,-3.62047,-2.8906329,-3.955477,6.091745224563434
7714815.8804902965,-8.683864,2.5723763,10.021499,13.507666564077553
7714852.0,-12.012399,-6.3148847,3.874118,14.113266410984352
7714887.8804902965,-9.961677,-2.21344,2.6920216,10.55373420078389
7714924.0,-11.5218525,-1.8880045,5.6903353,12.988362554617984
7714960.8804902965,-3.646792,-4.0224786,3.048565,6.22681094445198
7714997.0,-12.629769,-27.764912,20.468935,36.73389039286923
7715032.8804902965,-7.5328746,-6.3172774,2.5149465,10.147765733684345
7715069.0,-7.9013824,-2.7949166,4.1780176,9.364786900826687
7715104.8804902965,-9.932961,-4.218697,2.7901309,11.14656669313313
7715141.0,-9.4495945,-4.5178103,6.7360363,12.45309725153281
7715176.8804902965,-7.032757,-4.991606,1.8138243,8.812817941586873
7715213.0,-8.437394,-8.420644,1.9382555,12.076990406109141
7715249.8804902965,-11.466816,-1.6941789,4.608741,12.473916984177112
7715286.0,-8.973405,-4.9533195,3.3452854,10.781850758128606
7715321.8804902965,-9.789387,-3.1347096,0.1196454,10.27972845623085
7715358.0,-8.982977,-0.37329367,2.5197322,9.337144869086476
7715393.8804902965,-18.143028,-50.95937,-26.719212,60.33194133878528
7715430.0,-10.267968,-0.17228939,3.9698346,11.010015314897965
7715465.8804902965,-8.6048975,-2.916955,1.2586696,9.172629754846502
7715502.0,-20.114786,2.268477,-14.130122,24.68625025110555
7715538.8804902965,-9.84921,-2.0028641,3.5367181,10.654894515950705
7715575.0,-10.971483,-3.7042217,2.555626,11.858580095184916
7715610.8804902965,-9.243804,0.6484781,-2.4670882,9.589314908958558
7715647.0,-10.997806,-7.0710435,16.544567,21.087296891968332
7715682.8804902965,-6.8341455,6.013378,13.105958,15.957205105651123
7715719.0,-3.4433947,-1.8616825,12.201438,12.813973546821389
7715754.8804902965,-9.423272,-2.0196145,1.4046371,9.739091502665465
7715791.0,-11.38785,-1.8425392,2.08183,11.722290496099157
7715827.8804902965,-6.8150024,-3.8286529,1.6582853,7.990791630175339
7715864.0,-8.076065,-4.0248713,1.6630712,9.175413924290181
7715899.8804902965,-19.227016,3.4266443,-1.2825987,19.572048815804138
7715936.0,-10.732193,-2.8284173,1.2275618,11.166325222964247
7715971.8804902965,-11.450066,-3.2352118,1.1581675,11.954578986868231
7716008.0,-3.0294216,3.9722273,-3.2615337,5.966036123729686
7716044.8804902965,-6.322063,1.7061435,11.864038,13.551191972812031
7716081.0,-8.317748,-2.8451676,2.2756555,9.080667289262061
7716116.8804902965,-9.05955,-5.8363028,-1.3854938,10.86542542405157
7716153.0,-15.084892,-2.1990826,0.18664683,15.245483527013363
7716188.8804902965,-9.990392,-1.1342385,2.6872358,10.407481229065365
7716225.0,-10.418722,-1.0815945,-4.192375,11.282536191669818
7716260.8804902965,-10.227289,-0.13400285,1.354386,10.317449224024568
7716297.0,-5.912876,0.11485959,1.6606783,6.14273129258328
7716332.8804902965,-5.0418572,-0.48336744,1.6965718,5.341565686182211
7716369.0,-9.971248,1.3687434,8.226818,12.999222268184798
7716404.8804902965,-8.23639,-3.8693323,0.5886554,9.119011342238393
7716441.0,-10.12918,-3.5032175,1.328064,10.799841402205972
7716476.8804902965,-9.959284,-2.2565124,1.1916683,10.281014509338787
7716513.0,-5.2021823,-4.637456,1.0289505,7.04467444001634
7716548.8804902965,-8.966227,-1.2275618,3.1682103,9.588414420193484
7716585.0,-0.15553902,-3.7161863,5.2524333,6.436014960672415
7716621.8804902965,-9.98082,-3.409894,-0.97152066,10.59188356037031
7716658.0,-21.461992,5.783659,-78.36774,81.45901107148272
7716693.8804902965,-8.858545,-0.105287954,5.728622,10.549977018418879
7716730.0,-8.801116,-2.4694812,2.6896286,9.528487930860143
7716765.8804902965,-13.70897,-4.3287706,2.706379,14.628691009791867
7716802.0,-9.880318,-2.5915194,3.6252558,10.838779276151628
7716838.8804902965,-10.126787,-3.82626,3.6755068,11.432472644525122
7716875.0,-10.528795,0.7441944,-1.7252867,10.695137383606312
7716910.8804902965,-5.934412,-2.0028641,-0.12203831,6.264471544984498
7716947.0,-5.2739697,8.537896,-3.984192,10.79741683904989
7716982.8804902965,-9.798959,2.555626,6.463245,12.013507300767
7717019.0,-8.088029,-2.8595252,1.8042527,8.766323361577152
7717054.8804902965,-9.033228,-2.8714898,3.2878556,10.032679413693003
7717091.0,-9.100229,-1.1222739,3.5295393,9.825035075220176
7717127.8804902965,-8.939904,-1.4812101,0.31107804,9.06711841968154
7717164.0,-14.828852,-0.89734054,3.7688303,15.326583230218978
7717199.8804902965,-9.308413,-7.1021514,11.555353,16.45032796152405
7717236.0,-21.653425,10.401972,35.343254,42.73426539707832
7717271.8804902965,-7.834381,-5.675978,2.7446656,10.056214057261727
7717308.0,-8.109566,-4.8839254,2.41923,9.770898720896719
7717343.8804902965,-8.317748,-4.0153,1.5769265,9.36985928751901
7717380.0,-6.2550616,-5.443866,4.57524,9.470707138506109
7717416.8804902965,-10.887732,-4.529775,3.017457,12.172371026274954
7717453.0,-8.406286,-3.9315479,1.8903974,9.470813879161451
7717488.8804902965,-9.597955,-3.01985,2.3211207,10.326075513402635
7717525.0,2.5580187,-13.491216,32.96231,35.70812581702246
7717560.8804902965,-11.038485,-1.5601761,7.011221,13.169643900617707
7717597.0,-7.9516335,-4.168446,2.5675905,9.337930089100501
7717632.8804902965,-3.8812969,-2.1033661,13.950654,14.632476263582141
7717669.0,-12.541231,-3.7066147,3.0916374,13.4379942455225
7717705.8804902965,-8.5642185,-3.799938,1.2921704,9.458069129702025
7717742.0,-9.509417,-1.8616825,1.6199988,9.824422096118258
7717777.8804902965,-7.056686,-1.8856115,0.30389932,7.310588405061846
7717814.0,-10.208146,-0.885376,9.626669,14.059263545941977
7717849.8804902965,-8.561825,-3.3333209,2.7925239,9.602815487401235
7717886.0,-9.786994,-3.854975,2.3067634,10.768808717320619
7717921.8804902965,-9.083479,-2.3115492,4.7977805,10.529555934304252
7717958.0,-10.890124,-3.6563635,1.4429235,11.577815986029512
7717994.8804902965,-9.384986,-2.9911351,1.4812101,9.960865161570556
7718031.0,-4.924605,-0.1483603,-2.2445478,5.414031770420814
7718066.8804902965,-4.6494203,-2.474267,-1.9334698,5.610473400779397
7718103.0,-8.423037,-4.288091,1.9932925,9.659632069504834
7718138.8804902965,-8.9973345,-2.5484471,4.113409,10.216004323005626
7718175.0,-8.308177,-4.292877,1.8736471,9.53756527924168
7718211.8804902965,-8.31057,-5.5802617,2.574769,10.33606935777561
7718248.0,-5.9439836,-7.1189017,-0.6939433,9.300067728513957
7718283.8804902965,-5.704693,-6.3675284,4.084694,9.474896581107974
7718320.0,-8.774794,-5.963127,3.9219763,11.310958909762103
7718355.8804902965,-7.729093,-2.8930259,0.84708947,8.296145974541714
7718392.0,-7.336656,-3.2088897,9.2988405,12.27159032128853
7718427.8804902965,-8.145459,-5.049036,2.8810613,10.007086542262673
7718464.0,-8.837009,-4.3909864,1.9382555,10.056357392930416
7718500.8804902965,-9.253376,-3.8573678,7.4874096,12.512615883979855
7718537.0,-8.736507,-4.974856,3.6252558,10.687292753416024
7718572.8804902965,-9.657777,-3.876511,2.2517266,10.647547454507896
7718609.0,-8.375178,-3.0294216,-0.6221561,8.9279381704287
7718644.8804902965,-16.523031,7.547232,14.060728,22.97118491020367
7718681.0,-8.49961,-4.2904844,3.3548572,10.094884514997446
7718716.8804902965,-4.9030685,-1.7228938,14.240196,15.158879440123094
7718753.0,-8.585754,-4.0679436,3.464931,10.112817793081113
7718789.8804902965,-4.7786374,-7.4323726,2.7662017,9.25890974742666
7718826.0,-9.815709,-5.5874405,1.040915,11.342448525382263
7718861.8804902965,-9.308413,-3.9985495,4.9604983,11.280137147518294
7718898.0,2.8403819,-9.775029,13.886045,17.217468078399726
7718933.8804902965,-8.923154,1.3160994,-8.513967,12.403323305287392
7718970.0,-9.0428,-3.8190813,5.709479,11.35586915508675
7719005.8804902965,-7.805666,-5.099287,2.9600272,9.782275330242184
7719042.0,-9.698457,-13.802294,12.948026,21.2653418768653
7719077.8804902965,-8.595325,-4.608741,3.5893621,10.392479287716787
7719114.0,-7.2337613,-5.6568346,1.9334698,9.384315942286198
7719149.8804902965,-7.324692,-3.309392,0.571905,8.05793172182248
7719186.0,-5.963127,-3.984192,1.0696299,7.250984597554115
7719221.8804902965,15.439043,-40.284607,-11.337599,44.60666722570853
7719258.0,-2.9480627,-7.542446,5.4319015,9.751159892635826
7719294.8804902965,-2.627413,-8.85376,2.6992004,9.62174869810728
7719331.0,-0.10289505,-10.9786625,-0.2584341,10.982185841819632
7719366.8804902965,-6.58289,-8.860939,2.8068812,11.38987545079991
7719403.0,-3.2519622,-7.159581,9.495059,12.328463150744737
7719438.8804902965,-4.560883,-8.059315,5.728622,10.889045964996106
7719475.0,-5.025107,-10.739371,3.3763933,12.32825298058792
7719510.8804902965,-5.484545,-9.033228,2.5819478,10.878690012999442
7719547.0,-3.749687,-11.174881,2.390515,12.027164251283631
7719583.8804902965,-10.177038,-4.836067,21.095879,23.916432787198303
7719620.0,-2.0626867,-7.9803486,-1.926291,8.464705382738366
7719655.8804902965,-5.5563326,-7.683628,-2.7685947,9.87806093406367
7719692.0,-12.668056,7.910954,-17.985098,23.377908077474686
7719727.8804902965,-4.560883,-9.909033,-2.1703677,11.122098933563812
7719764.0,-2.266084,-8.356035,-1.430959,8.775312032968515
7719799.8804902965,-6.042093,-5.8721967,-1.2275618,8.514487058946013
7719836.0,-3.979406,-6.7336435,0.5886554,7.843732662315654
7719872.8804902965,-4.1995535,-11.318456,5.7621226,13.37706068913231
7719909.0,-5.7166576,-8.509181,1.2634555,10.328729602757495
7719944.8804902965,-3.5821834,-7.9444547,1.0983448,8.78366436581423
7719981.0,0.43311638,-12.711128,1.7085364,12.832749567459551
7720016.8804902965,-5.3242207,-10.126787,3.5391111,11.975994672002017
7720053.0,-5.518046,-8.44218,0.40679437,10.093795939584854
7720088.8804902965,-3.804724,-9.451987,-1.1222739,10.250633232682079
7720125.0,-0.7633377,-6.482388,-2.5053747,6.991490614610405
7720161.8804902965,-7.157188,-11.342384,3.8382246,13.950160678316402
7720198.0,-7.554411,-6.743215,2.0411506,10.329877533883273
7720233.8804902965,1.7611804,-1.9765421,-17.599838,17.79783056163477
7720270.0,-4.7283864,-7.2768335,2.7374868,9.099658109764425
7720305.8804902965,-5.49651,-8.473288,3.0270288,10.543772335700037
7720342.0,-5.2141466,-0.5647263,-0.8997334,5.321255561545491
7720378.8804902965,-4.843246,-7.231368,-0.14118157,8.70457622194485
7720415.0,6.506317,-31.538528,-9.164838,33.481415216169054
7720450.8804902965,-4.5704546,-6.5972476,5.135181,9.528001629362157
7720487.0,-3.4553592,-9.380199,2.1560102,10.226241756536448
7720522.8804902965,-2.8930259,-9.243804,0.8279462,9.72126566649535
7720559.0,-2.9217408,-9.9927845,-0.78008807,10.44034715719651
7720594.8804902965,-5.149538,-8.432608,2.2062612,10.123942304148786
7720631.0,-5.077751,-10.445044,1.899969,11.76827861587658
7720667.8804902965,-5.211754,-11.088737,3.409894,12.7180912523429
7720704.0,-0.16989647,-0.052643977,-0.03828653,0.18193970762941863
7720739.8804902965,33.40739,-35.08721,67.96816,83.46757925075939
7720776.0,-8.104779,-6.4369226,6.0564504,11.991747439172155
7720811.8804902965,-7.133259,-7.44673,2.1727605,10.538408790910573
7720848.0,-6.7216787,-9.279697,0.1196454,11.458972727936125
7720883.8804902965,-6.0038066,-8.707792,1.6463208,10.70428453386681
7720920.0,-6.4656377,-7.5903044,3.6276486,10.610232142484096
7720956.8804902965,-5.5874405,-6.9657555,0.859054,8.971020833870385
7720993.0,-9.686492,-8.808294,2.5412683,13.336874260076268
7721028.8804902965,-11.538603,9.02605,12.852309,19.48822168453525
7721065.0,-7.9994917,-3.0557437,2.3259068,8.873515620133027
7721100.8804902965,-6.568533,-7.3318706,2.0866158,10.062599950511945
7721137.0,-4.2306614,-8.461323,0.87580436,9.500500832523198
7721172.8804902965,-6.6786065,-3.1036017,0.13160995,7.365694093092934
7721209.0,-8.5642185,-6.8580747,2.000471,11.152619034485278
7721245.8804902965,-7.0973654,-6.0181637,1.1509888,9.376335380032025
7721282.0,-2.1775463,-9.327556,8.92794,13.09401090061329
7721317.8804902965,-26.197557,-6.1545596,3.6420062,27.156119122566825
7721354.0,-9.535739,-5.5635114,0.54079723,11.053299915320611
7721389.8804902965,-6.968148,-6.066022,2.5867336,9.593899112027236
7721426.0,-11.66782,-4.4173083,1.7827165,12.602726462516799
7721462.8804902965,-10.71305,3.8406174,1.6846073,11.504680963455531
7721499.0,-13.271069,-6.3986363,-3.2615337,15.089778692170219
7721534.8804902965,-8.540289,-5.675978,0.44747382,10.264185076253758
7721571.0,-8.621648,-6.6355343,6.9705415,12.920974362856803
7721606.8804902965,-9.672134,7.7984877,21.239452,24.606521651410045
7721643.0,-8.391929,-4.97007,5.821945,11.358746045623434
7721678.8804902965,-6.968148,-5.520439,2.763809,9.309617258035155
7721715.0,-6.2981343,-11.10788,1.8568966,12.903470802010135
7721750.8804902965,-8.066493,-19.777386,17.721878,27.753887406252282
7721787.0,-7.080615,-5.6640134,6.247883,11.01145760357336
7721822.8804902965,-8.200496,-4.345521,0.7441944,9.310505502519632
7721859.0,-8.339285,-1.5458187,0.7418015,8.513724169239742
7721894.8804902965,-9.932961,-3.929155,3.1275308,11.130292994638312
7721931.0,-10.007142,-5.0586076,6.551782,12.986849087999204
7721966.8804902965,-8.444572,-6.5254602,0.27518442,10.675586801201083
7722003.0,-6.2598476,-9.712814,-11.368707,16.210242028596326
7722039.8804902965,-8.032992,-6.3651357,4.4173083,11.160489486072168
7722076.0,-8.135887,-4.9963923,2.8068812,9.95164184258968
7722111.8804902965,-7.4826236,-1.354386,0.069394335,7.604527135200653
7722148.0,-5.623334,-6.0014133,-0.6101916,8.24688915056359
7722183.8804902965,-8.624041,-6.4943523,8.707792,13.869979685690252
7722220.0,-8.291427,-6.1043086,4.082301,11.075898457234247
7722255.8804902965,-6.221561,-8.245961,1.3711363,10.420350706354354
7722292.0,-8.143066,-2.1703677,3.3381069,9.064379598703205
7722328.8804902965,-7.2241898,-7.150009,3.0605295,10.615007667772797
7722365.0,-7.499374,-8.446965,3.464931,11.815141765457662
7722400.8804902965,-6.798252,0.93802,8.370393,10.824028397521552
7722437.0,-7.243333,2.1033661,-6.537425,9.981380041364181
7722472.8804902965,-8.028207,-4.0488005,6.7240715,11.22755675384282
7722509.0,-7.4395514,-7.0686507,1.7851094,10.416302766424408
7722545.8804902965,0.3517575,-4.974856,-3.823867,6.284495555987867
7722582.0,-10.765694,-8.018635,2.5699832,13.667607259983118
7722617.8804902965,-9.384986,-3.5343254,-0.33022133,10.03386587413187
7722654.0,-5.0921082,-3.988978,-3.3859649,7.301114278589484
7722689.8804902965,-9.406522,-6.24549,2.6226273,11.591676989602899
7722726.0,0.30389932,-9.715207,7.733879,12.421372155932954
7722761.8804902965,-7.7697725,-9.222268,1.9119335,12.209630685405784
7722798.0,-6.6977496,-5.807588,2.2708697,9.151217256541463
7722834.8804902965,-7.391693,-6.700143,4.0416217,10.764002396534892
7722871.0,-5.3266134,-12.979134,0.07896597,14.029859775758046
7722906.8804902965,-6.716893,-7.554411,1.0169859,10.159726248830172
7722943.0,-13.61804,1.9191123,-7.3581924,15.597339544198846
7722978.8804902965,-7.075829,-6.539818,3.436216,10.229572616146825
7723015.0,-7.0590787,-7.9205256,2.7015932,10.948238383015566
7723050.8804902965,-4.556097,-1.8377534,0.63651353,4.953837593875441
7723087.0,-11.600819,-4.1564813,11.210774,16.6594355230628
7723123.8804902965,-7.492195,-6.637927,2.3881223,10.290684568827833
7723160.0,-5.8626246,-7.415622,0.9284483,9.498622694537458
7723195.8804902965,-23.153778,11.588854,64.062935,69.09745735930393
7723232.0,-7.585519,-5.2428617,3.697043,9.93457720532368
7723267.8804902965,-7.753022,-6.458459,0.49054617,10.10255800933935
7723304.0,-7.7769513,-6.2909555,1.6893932,10.144512901552158
7723339.8804902965,-2.1679747,-10.488116,-1.6415349,10.834912475752358
7723376.0,-3.7975452,-2.6393776,-51.28002,51.48813567086912
7723412.8804902965,-5.726229,-7.207439,2.759023,9.609843048338043
7723449.0,-7.0088277,-5.597012,2.8068812,9.39833980697361
7723484.8804902965,-6.6355343,-7.3007627,1.3711363,9.960495278918888
7723521.0,-8.45893,-6.738429,1.7587874,10.95688163901298
7723556.8804902965,-7.7817373,-6.403422,2.3330853,10.344203001361263
7723593.0,-7.0638647,-5.2213254,3.1347096,9.326672917440785
7723629.8804902965,-9.303627,-9.054764,-0.19861138,12.984054564391299
7723666.0,-10.215324,0.36372203,8.171782,13.08675510566341
7723701.8804902965,-0.46661708,-7.0662575,-20.33254,21.530487904533285
7723738.0,-7.552018,-6.8221807,2.342657,10.44333123076279
7723773.8804902965,-8.052135,-7.5639825,0.6676214,11.067810427192418
7723810.0,-9.035621,-5.9870563,2.395301,11.100664704224323
7723845.8804902965,-0.1483603,-0.23211208,-0.12443122,0.30227458511873734
7723882.0,-19.48545,-7.3294773,-14.010477,25.093773430101027
7723917.8804902965,-7.623805,-7.7243075,-0.39243692,10.860079915394746
7723954.0,0.24407662,-14.972425,-6.2550616,16.228335693990626
7723989.8804902965,-5.8745894,-7.480231,-2.057901,9.731372614269498
7724026.0,-6.606819,-7.0183992,2.6680925,10.001335021779738
7724061.8804902965,-5.77648,-9.040407,0.90691215,10.766576501556408
7724098.0,-4.0535865,-7.449123,7.111723,11.067863434775488
7724133.8804902965,-13.819044,-12.883417,-7.7243075,20.41110817727399
7724170.0,-6.2885623,-7.6668777,5.620941,11.398333527021377
7724206.8804902965,-8.049743,-0.8614469,0.35415038,8.103448378266055
7724243.0,-10.069357,-14.376592,2.0124357,17.667151591995452
7724278.8804902965,-8.597719,-7.659699,3.979406,12.18307977838108
7724315.0,-5.4869385,-6.427351,5.5084743,10.087647103945683
7724350.8804902965,-8.557039,-6.561354,-5.5874405,12.144701482616904
7724387.0,-9.619491,-4.087087,-3.4984317,11.021701847002344
7724422.8804902965,-5.939198,-8.513967,2.1823323,10.60774628410372
7724459.0,-6.3651357,-7.9372764,2.2852273,10.427730958462476
7724495.8804902965,-5.802802,-8.832224,5.0418572,11.709014299358074
7724532.0,-3.802331,-6.535032,0.8231604,7.605390017527909
7724567.8804902965,-18.853724,15.874553,-53.438423,58.84835931735832
7724604.0,-4.1014442,-5.2715764,6.3627424,9.224741357648373
7724639.8804902965,-5.5587254,-7.185903,4.5465255,10.159110400038205
7724676.0,-6.506317,-7.65252,3.6228628,10.677937915277127
7724712.8804902965,-0.25125536,-2.5867336,1.0624512,2.8076898912948223
7724749.0,-7.887025,-6.6259627,5.223718,11.549708861955798
7724784.8804902965,-6.8078237,-6.92029,3.4027152,10.286658735794278
7724821.0,-7.683628,-6.9920774,2.9121692,10.789254610926715
7724856.8804902965,-7.4060507,-7.817631,1.6893932,10.900412414552843
7724893.0,-8.037778,-6.637927,6.637927,12.358398961513664
7724928.8804902965,-7.3821216,-5.549154,2.9815636,9.704563407683393
7724965.0,-5.8674107,-3.5797906,-0.7489802,6.913926554593626
7725001.8804902965,23.618002,-44.656452,-27.070969,57.313576806017515
7725038.0,-7.85831,-2.368979,7.4586945,11.09041122785225
7725073.8804902965,-12.86906,-0.43550926,1.277813,12.939674635094761
7725110.0,-10.382828,-5.6352987,1.9573988,11.974603073924712
7725145.8804902965,-10.272755,-1.3687434,-1.3926725,10.456695963703105
7725182.0,-8.817866,-0.6389065,-1.0576653,8.904022585130967
7725217.8804902965,-9.164838,-7.7937016,-10.100465,15.708451018872344
7725254.0,-9.554882,-4.216304,3.2974274,10.951986893372853
7725290.8804902965,-9.4495945,-3.3716075,1.3711363,10.126331423653099
7725327.0,-7.791309,-3.7161863,2.3546216,8.947557176625095
7725362.8804902965,11.526638,-12.802058,-12.289976,21.16127554517884
7725399.0,-11.701321,0.057429794,11.062414,16.102832509644877
7725434.8804902965,-9.507024,-3.228033,4.2091255,10.886709321939998
7725471.0,-8.963834,-3.596541,3.3716075,10.230012916819472
7725506.8804902965,-8.19571,-5.5395823,0.83751786,9.927641745570408
7725543.0,-3.5630403,-5.915269,3.1921394,7.607589465186555
7725579.8804902965,-10.382828,-3.8836899,2.9217408,11.463975480579617
7725616.0,-10.035856,-3.2591407,1.4668527,10.653265255245914
7725651.8804902965,-10.684335,-3.7903664,-1.2155973,11.40173533433579
7725688.0,-14.9317465,-8.095208,-1.8186102,17.082060448408157
7725723.8804902965,-12.330655,-1.4764243,6.2119894,13.885737061761175
7725760.0,-9.009299,-3.6252558,1.9119335,9.89774912771873
7725796.8804902965,-9.00212,-4.1349454,2.1153307,10.129687158335328
7725833.0,-15.867373,-1.5171037,-9.624276,18.619930668019652
7725868.8804902965,-10.253612,-3.926762,1.8736471,11.138517509369297
7725905.0,-9.492666,-4.405344,0.8159817,10.496837127469725
7725940.8804902965,-9.43045,-4.556097,2.6728783,10.809055716505485
7725977.0,-2.41923,-7.2337613,-0.80641,7.670089531835837
7726012.8804902965,-14.821672,3.464931,16.98247,22.805525536835255
7726049.0,-11.899932,-3.0748868,3.328535,12.73351701941232
7726085.8804902965,-8.241176,-4.0751224,2.7949166,9.609118754543172
7726122.0,-8.719757,-3.8430104,1.9741492,9.731400522916411
7726157.8804902965,-13.168173,-1.0720228,3.5917552,13.69126431190253
7726194.0,-9.918604,-1.304135,1.8090385,10.166223177833706
7726229.8804902965,-9.329948,-8.707792,-0.34697166,12.766908808745018
7726266.0,-10.6269045,-3.5702188,-0.5025107,11.221857178542605
7726301.8804902965,-6.1545596,-6.063629,-0.9404129,8.690832925679768
7726338.0,-8.956655,-4.008121,1.3519931,9.905280817933109
7726374.8804902965,-9.899461,-2.5939124,2.2325833,10.474356200780727
7726411.0,-7.6884136,-5.42233,0.06221561,9.408359957808408
7726446.8804902965,-7.733879,-7.5017667,-2.3354783,11.0246925987821
7726483.0,-6.690571,0.53840435,-2.605877,7.200292666917708
7726518.8804902965,-8.360821,-2.3641932,3.1466742,9.240903408320687
7726555.0,-11.837716,-4.544132,-1.483603,12.766429947001198
7726590.8804902965,-8.674292,-5.049036,3.644399,10.677909453716161
7726627.0,-6.8843966,-2.4790528,-1.3113136,7.433717958654629
7726662.8804902965,7.85831,-27.190615,-78.36774,83.32217743699408
7726699.0,-7.8822393,-2.7518444,6.6833925,10.694394760496365
7726734.8804902965,-7.5400534,-4.819317,2.2708697,9.23228416025626
7726771.0,-8.624041,-5.4582233,2.010043,10.402238106493856
7726806.8804902965,0.10289505,-21.347134,-0.27518442,21.349155577452738
7726843.0,-10.870981,-5.0968943,3.2830698,12.447293148287525
7726879.8804902965,-8.114351,-5.5060816,2.4646955,10.111100367654345
7726916.0,-8.473288,-5.4199367,3.6898644,10.713889240296366
7726951.8804902965,1.4285661,-2.761416,-2.3522286,3.898614986605265
7726988.0,-8.379964,-3.201711,9.222268,12.865651053586095
7727023.8804902965,-9.15048,-4.225876,3.0892444,10.54195158216482
7727060.0,-6.6259627,2.1488314,1.3519931,7.0956848457259465
7727095.8804902965,-8.013849,-3.7664373,0.75615895,8.88704687099699
7727132.0,-9.081086,-4.357486,2.0459363,10.278115708788732
7727168.8804902965,-8.882475,-4.8025665,1.9047549,10.27575293307606
7727205.0,-6.824574,-0.8183746,-1.9334698,7.140227778923667
7727240.8804902965,6.5254602,-30.653152,-77.07557,83.20361079413433
7727277.0,-11.249061,-5.051429,4.6589923,13.181976997978007
7727312.8804902965,-8.35125,-4.0440145,4.1540885,10.166311086354899
7727349.0,-9.119372,-5.125609,1.0050215,10.5092759746201
7727384.8804902965,-11.356742,-3.9100118,6.3148847,13.569876561892425
7727421.0,-6.7312503,-5.5587254,-3.6874714,9.476634634704094
7727457.8804902965,0.49054617,9.837245,21.737177,23.864552974322724
7727494.0,-7.992313,-6.8532887,0.37329367,10.534893509645874
7727529.8804902965,-6.99447,-7.2505116,0.09571633,10.074804745426247
7727566.0,-7.0519004,-3.2208543,7.0447216,10.475271075005898
7727601.8804902965,-9.313198,-7.212225,-0.15553902,11.780324224085327
7727638.0,-7.0207925,-6.3124914,1.4955676,9.559068858905661
7727673.8804902965,-6.506317,-6.953791,-1.1605604,9.5934493597568
7727710.0,2.6369848,-5.7358007,-1.639142,6.522260727824022
7727746.8804902965,-7.630984,-6.824574,0.3828653,10.244672416806507
7727783.0,-7.5113387,-8.19571,0.9834852,11.160515875569404
7727818.8804902965,1.5482116,-5.4079723,-2.967206,6.359829793506886
7727855.0,-13.965012,10.610154,18.521109,25.507418659161512
7727890.8804902965,-8.140674,-5.6999073,3.3261423,10.479634488030515
7727927.0,-7.212225,-13.565396,-6.094737,16.52821760464842
7727963.8804902965,-8.882475,-5.723836,-1.7037506,10.703430608338682
7728000.0,-6.0803795,-7.810452,2.21344,10.14265704546517
7728035.8804902965,-11.045664,-3.7688303,4.505846,12.51053249093779
7728072.0,4.29527,-12.266047,-10.746551,16.86397378362259
7728107.8804902965,-16.724035,-14.290447,-9.490273,23.957785869223454
7728144.0,-6.8078237,-8.205282,-0.47618872,10.67238829535643
7728179.8804902965,-5.9870563,-8.205282,0.1172525,10.158013781623351
7728216.0,-5.910483,-8.418251,-1.483603,10.392393230334338
7728252.8804902965,0.20100428,-5.9679127,4.4412374,7.4418394472441
7728289.0,-9.911426,-2.5221252,11.574496,15.445596088593248
