timestamp,accel_x,accel_y,accel_z,magnitude
1484026.9084130782,-9.686492,-1.2060257,-0.5312256,9.775726361412733
1484028.064354067,-9.7176,-1.2658484,-0.4785816,9.811379224127519
1484029.2202950558,-9.796566,-1.3448143,-0.5288327,9.902570116814614
1484030.3762360446,-9.844424,-1.3735292,-0.5144752,9.953087515260965
1484031.5321770336,-9.8922825,-1.4261732,-0.5168682,10.007915656737707
1484032.6881180224,-9.94014,-1.433352,-0.5814767,10.059771186669549
1484033.8440590112,-9.98082,-1.4405307,-0.5838696,10.101128663661633
1484035.0,-9.95689,-1.3926725,-0.5336185,10.067966223021335
1484035.9084130782,-9.937747,-1.3519931,-0.51926106,10.042725368488822
1484037.064354067,-9.920997,-1.328064,-0.54079723,10.024090836882948
1484038.2202950558,-9.834852,-1.2419193,-0.55036885,9.928221556787841
1484039.3762360446,-9.818102,-1.1988469,-0.6006199,9.909243413920137
1484040.5321770336,-9.815709,-1.1749178,-0.57669085,9.902582862360282
1484041.6881180224,-9.810924,-1.225169,-0.5838696,9.904351191377513
1484042.8440590112,-9.839638,-1.2682413,-0.57669085,9.937780652768677
1484044.0,-9.863567,-1.2993491,-0.57669085,9.965482145066215
1484044.9084130782,-9.897068,-1.4381378,-0.5814767,10.017899504439827
1484046.064354067,-9.906639,-1.7228938,-0.38765112,10.062809384721382
1484047.2202950558,-9.842031,-1.6630712,-0.21775463,9.983926937839483
1484048.3762360446,-9.889889,-1.4381378,-0.3565433,10.000263390975496
1484049.5321770336,-10.052607,-1.2395264,-0.60301286,10.146672247691424
1484050.6881180224,-9.947319,-1.1581675,-0.8542682,10.050884608000855
1484051.8440590112,-9.853995,-1.0815945,-0.9140909,9.955231102084875
1484053.0,-9.786994,-0.9834852,-0.7322299,9.863501169519322
1484053.9084130782,-9.86596,-0.9858781,-0.43072346,9.924446838421472
1484055.064354067,-9.873138,-1.0720228,-0.27279153,9.934913289485902
1484056.2202950558,-9.839638,-1.1557746,-0.3230426,9.912549995761127
1484057.3762360446,-9.832459,-1.2155973,-0.48336744,9.919101313349937
1484058.5321770336,-9.885103,-1.3065279,-0.6221561,9.990463186802433
1484059.6881180224,-9.944926,-1.3208853,-0.70830077,10.057235261343681
1484060.8440590112,-9.95689,-1.3113136,-0.7059079,10.067646586612353
1484062.0,-9.928176,-1.3376356,-0.6460852,10.038693827935107
1484063.9084130782,-9.880318,-1.3137065,-0.60301286,9.98549613482433
1484065.064354067,-9.760673,-1.2754201,-0.55036885,9.859023263765197
1484066.2202950558,-9.73435,-1.2108115,-0.5695121,9.825883087187567
1484067.3762360446,-9.715207,-1.2371335,-0.55754757,9.809516075856349
1484068.5321770336,-9.7415285,-1.251491,-0.52165395,9.835432379054
1484069.6881180224,-9.763065,-1.2849916,-0.57429796,9.863998162669928
1484070.8440590112,-9.80853,-1.3208853,-0.5934412,9.914845999535924
1484072.0,-9.875532,-1.328064,-0.6197632,9.983686327964948
1484072.9084130782,-9.894675,-1.3519931,-0.6293348,10.006424985406309
1484074.064354067,-9.885103,-1.3615648,-0.5910483,9.995922074433201
1484075.2202950558,-9.880318,-1.3472073,-0.5886554,9.989102385612357
1484076.3762360446,-9.863567,-1.3376356,-0.6006199,9.97195904655411
1484077.5321770336,-9.839638,-1.301742,-0.5910483,9.942954606078663
1484078.6881180224,-9.842031,-1.3519931,-0.6101916,9.953180061473779
1484079.8440590112,-9.858782,-1.3376356,-0.5934412,9.966796073953192
1484081.0,-9.8922825,-1.3711363,-0.59583414,10.00461324266828
1484081.9084130782,-9.916211,-1.3615648,-0.5695121,10.025439807468123
1484083.064354067,-9.978427,-1.4453164,-0.5360114,10.096794199713488
1484084.2202950558,-9.983212,-1.457281,-0.5431901,10.103625351063004
1484085.3762360446,-10.011928,-1.4740313,-0.5288327,10.133663433090373
1484086.5321770336,-9.995177,-1.4524952,-0.5551547,10.115409151798266
1484087.6881180224,-9.952105,-1.4118158,-0.571905,10.068003432318626
1484088.8440590112,-9.920997,-1.3472073,-0.5814767,10.028921384467283
1484090.0,-9.880318,-1.3256711,-0.6006199,9.98693305829048
1484090.9084130782,-9.8922825,-1.2802058,-0.5886554,9.992131660967496
1484092.064354067,-9.909033,-1.2969562,-0.5647263,10.009492803020498
1484093.2202950558,-9.885103,-1.3208853,-0.57669085,9.989623197740684
1484094.3762360446,-9.937747,-1.3424214,-0.55036885,10.04309795442807
1484095.5321770336,-9.947319,-1.3711363,-0.54797596,10.056313822354422
1484096.6881180224,-9.964069,-1.4046371,-0.5264398,10.076349303318214
1484097.8440590112,-9.973641,-1.4596739,-0.5527618,10.095033843368801
1484099.0,-10.009535,-1.4668527,-0.55754757,10.131796832375548
1484099.9084130782,-9.971248,-1.457281,-0.5886554,10.09435336068706
1484101.064354067,-9.976034,-1.4596739,-0.60779864,10.100560452285956
1484102.2202950558,-9.9425335,-1.3854938,-0.6173703,10.057569863330942
1484103.3762360446,-9.9425335,-1.304135,-0.5695121,10.043858050017118
1484104.5321770336,-9.894675,-1.2945633,-0.57429796,9.995514275923577
1484105.6881180224,-9.9425335,-1.2275618,-0.6221561,10.037328259263452
1484106.8440590112,-9.937747,-1.222776,-0.64129937,10.033207934860485
1484108.0,-9.944926,-1.251491,-0.60779864,10.041772854199744
1484109.9084130782,-9.973641,-1.3256711,-0.60301286,10.079411846510768
1484111.064354067,-9.985605,-1.3232782,-0.60779864,10.091223493581246
1484112.2202950558,-9.98082,-1.3854938,-0.598227,10.09426750615256
1484113.3762360446,-9.968855,-1.4022441,-0.60301286,10.085037582296616
1484114.5321770336,-9.971248,-1.4213874,-0.598227,10.089797042652133
1484115.6881180224,-9.954497,-1.328064,-0.5910483,10.060074681832033
1484116.8440590112,-9.918604,-1.3208853,-0.571905,10.022500616792055
1484118.0,-9.932961,-1.3208853,-0.52165395,10.033971050727011
1484118.9084130782,-9.928176,-1.2921704,-0.54558307,10.02676637385567
1484120.064354067,-9.913818,-1.3160994,-0.54558307,10.015666021492278
1484121.2202950558,-9.935354,-1.3567789,-0.5886554,10.044830673971084
1484122.3762360446,-9.913818,-1.3208853,-0.62454903,10.020907484043251
1484123.5321770336,-9.899461,-1.3783151,-0.58626246,10.012131854775697
1484124.6881180224,-9.918604,-1.3854938,-0.5838696,10.031909194587968
1484125.8440590112,-9.966462,-1.3854938,-0.54797596,10.077213678394457
1484127.0,-9.954497,-1.3663505,-0.54558307,10.062633109585674
1484127.9084130782,-9.99757,-1.380708,-0.5072965,10.105202136774713
1484129.064354067,-10.007142,-1.4022441,-0.5431901,10.119497764656447
1484130.2202950558,-9.995177,-1.3950654,-0.59583414,10.109638423504359
1484131.3762360446,-9.995177,-1.3998512,-0.6006199,10.11058311413078
1484132.5321770336,-10.009535,-1.40703,-0.5934412,10.125349218421182
1484133.6881180224,-9.995177,-1.4213874,-0.56711924,10.111653160318838
1484134.8440590112,-9.995177,-1.3878866,-0.57908374,10.107676807937665
1484136.0,-9.944926,-1.3902797,-0.5623334,10.05736792816409
1484136.9084130782,-9.916211,-1.4405307,-0.598227,10.038139510770534
1484138.064354067,-9.944926,-1.4189945,-0.60779864,10.064020952049539
1484139.2202950558,-9.987998,-1.4716384,-0.59583414,10.113399129409858
1484140.3762360446,-9.999963,-1.430959,-0.5910483,10.119102813687727
1484141.5321770336,-9.985605,-1.4668527,-0.5599405,10.108288550643108
1484142.6881180224,-10.019106,-1.4668527,-0.5527618,10.14099045903666
1484143.8440590112,-9.961677,-1.4668527,-0.5527618,10.084255604821088
1484145.0,-9.949712,-1.4620669,-0.54797596,10.071478846512935
1484146.9084130782,-9.906639,-1.4381378,-0.56711924,10.02653284243801
1484148.064354067,-9.916211,-1.4548881,-0.60540575,10.040640223719585
1484149.2202950558,-9.863567,-1.4429235,-0.6125845,9.987354102062342
1484150.3762360446,-9.868353,-1.4907818,-0.57669085,9.996969222934219
1484151.5321770336,-9.909033,-1.4524952,-0.57908374,10.031650675688644
1484152.6881180224,-9.887496,-1.5218896,-0.5431901,10.018671598038445
1484153.8440590112,-9.968855,-1.5984626,-0.51926106,10.109539294302984
1484155.0,-10.119608,-1.6487137,-0.52165395,10.266296595256845
1484155.9084130782,-10.198574,-1.7348584,-0.46183127,10.35538185792665
1484157.064354067,-10.306255,-1.7898953,-0.43790218,10.469688420828762
1484158.2202950558,-10.323006,-1.7994668,-0.39961565,10.486287536972423
1484159.3762360446,-10.358899,-1.8114314,-0.4498667,10.525704359180711
1484160.5321770336,-10.327791,-1.7109293,-0.48336744,10.47970372154345
1484161.6881180224,-10.258397,-1.6487137,-0.46183127,10.400300668544467
1484162.8440590112,-10.172253,-1.5912839,-0.49293905,10.30775942935336
1484164.0,-10.14593,-1.536247,-0.47618872,10.27261924277174
1484164.9084130782,-10.040643,-1.5673548,-0.4450809,10.171981612747677
1484166.064354067,-10.016713,-1.5506045,-0.4402951,10.14557900835991
1484167.2202950558,-9.990392,-1.6080343,-0.40200856,10.126959934054925
1484168.3762360446,-9.999963,-1.5960697,-0.37807947,10.133589816756082
1484169.5321770336,-10.035856,-1.6439278,-0.35893622,10.175939242859931
1484170.6881180224,-10.057393,-1.6104271,-0.40200856,10.193441042316215
1484171.8440590112,-10.057393,-1.586498,-0.37568656,10.188683440553918
1484173.0,-10.040643,-1.5721406,-0.34697166,10.168900002087764
1484173.9084130782,-10.007142,-1.562569,-0.37329367,10.135278045124716
1484175.064354067,-9.973641,-1.5290682,-0.36850783,10.096898651462416
1484176.2202950558,-9.930569,-1.5194967,-0.43072346,10.055376352184252
1484177.3762360446,-9.918604,-1.4859959,-0.4139731,10.037841543437336
1484178.5321770336,-9.918604,-1.5123179,-0.37807947,10.04035630966909
1484179.6881180224,-9.920997,-1.5338541,-0.37568656,10.045896190259008
1484180.8440590112,-9.920997,-1.5123179,-0.3613291,10.042103645311386
1484182.0,-9.928176,-1.5218896,-0.34457877,10.050052794403564
1484183.9084130782,-9.906639,-1.5386399,-0.33500713,10.031008862290166
1484185.064354067,-9.952105,-1.5410328,-0.31586388,10.075661070738212
1484186.2202950558,-9.928176,-1.5697477,-0.33979294,10.05724841945873
1484187.3762360446,-9.906639,-1.5290682,-0.34218585,10.029787484912752
1484188.5321770336,-9.88271,-1.5027462,-0.34457877,10.00224662835551
1484189.6881180224,-9.80853,-1.4883888,-0.34457877,9.926796890719592
1484190.8440590112,-9.770244,-1.4381378,-0.33500713,9.881201239144746
1484192.0,-9.758279,-1.3615648,-0.4091873,9.861303260366823
1484192.9084130782,-9.7176,-1.3615648,-0.4139731,9.821251559354472
1484194.064354067,-9.708028,-1.3567789,-0.45465255,9.812918300561293
1484195.2202950558,-9.703242,-1.3735292,-0.4737958,9.811420398388515
1484196.3762360446,-9.719993,-1.3687434,-0.5072965,9.828991410821603
1484197.5321770336,-9.710421,-1.3352427,-0.49533197,9.814300934129154
1484198.6881180224,-9.655384,-1.3400285,-0.47140288,9.759320531857766
1484199.8440590112,-9.593168,-1.301742,-0.46901,9.692439057888782
1484201.0,-9.609919,-1.2945633,-0.55036885,9.712329442276873
1484201.9084130782,-9.593168,-1.2682413,-0.5336185,9.691339276632098
1484203.064354067,-9.552489,-1.2490981,-0.5551547,9.649792168719319
1484204.2202950558,-9.526167,-1.2371335,-0.6125845,9.625674873916712
1484205.3762360446,-9.518989,-1.2562767,-0.5934412,9.6198521395571
1484206.5321770336,-9.492666,-1.2467052,-0.58626246,9.592115789296347
1484207.6881180224,-9.466345,-1.2658484,-0.6748001,9.57441460381613
1484208.8440590112,-9.447201,-1.2323477,-0.6556568,9.549773475192097
1484210.0,-9.440022,-1.2538838,-0.6532639,9.54531265425233
1484210.9084130782,-9.4137,-1.2562767,-0.6293348,9.51798514011521
1484212.064354067,-9.406522,-1.2467052,-0.64369226,9.510587243581488
1484213.2202950558,-9.420879,-1.2802058,-0.6532639,9.529881517943329
1484214.3762360446,-9.416093,-1.277813,-0.7130866,9.52911884419108
1484215.5321770336,-9.365842,-1.2969562,-0.703515,9.481351438951489
1484216.6881180224,-9.373021,-1.2945633,-0.73701566,9.490659033346057
1484217.8440590112,-9.317985,-1.277813,-0.7872668,9.438084526935338
1484219.0,-9.329948,-1.2802058,-0.8040171,9.451629492852016
1484220.9084130782,-9.294055,-1.2419193,-0.86862564,9.41681115841254
1484222.064354067,-9.267733,-1.2299547,-0.8877689,9.391048777593921
1484223.2202950558,-9.217482,-1.2467052,-0.92605543,9.347396799936522
1484224.3762360446,-9.219875,-1.2802058,-0.9451987,9.356197009921303
1484225.5321770336,-9.205518,-1.2825987,-0.9547703,9.343350972714648
1484226.6881180224,-9.227054,-1.304135,-0.9858781,9.37076567016808
1484227.8440590112,-9.212696,-1.3304569,-0.9858781,9.360333262188542
1484229.0,-9.274912,-1.3496002,-1.0648441,9.432884302528514
1484229.9084130782,-9.32277,-1.3783151,-1.0576653,9.483272055288307
1484231.064354067,-9.317985,-1.4118158,-1.1055236,9.488954143819624
1484232.2202950558,-9.310805,-1.4142087,-1.1581675,9.488541929782308
1484233.3762360446,-9.294055,-1.4213874,-1.2060257,9.47915072530046
1484234.5321770336,-9.33952,-1.4285661,-1.2299547,9.527865631741523
1484235.6881180224,-9.334735,-1.4788172,-1.2443122,9.532706367150395
1484236.8440590112,-9.320377,-1.4979604,-1.251491,9.522580664146572
1484238.0,-9.33952,-1.5386399,-1.2682413,9.54999908729303
1484239.9084130782,-9.392164,-1.5338541,-1.301742,9.605206152787497
1484241.064354067,-9.370628,-1.5506045,-1.2849916,9.584583811615131
1484242.2202950558,-9.389771,-1.5673548,-1.2921704,9.60698208826061
1484243.3762360446,-9.387379,-1.5697477,-1.2873845,9.604392285935457
1484244.5321770336,-9.387379,-1.5601761,-1.2395264,9.596533730933745
1484245.6881180224,-9.380199,-1.6008555,-1.2634555,9.599332862858828
1484246.8440590112,-9.392164,-1.5912839,-1.2467052,9.607247415831562
1484248.0,-9.363449,-1.6104271,-1.2754201,9.586154028154326
1484248.9084130782,-9.341913,-1.6343563,-1.2921704,9.571424311854264
1484250.064354067,-9.337128,-1.6750357,-1.301742,9.575084131182477
1484251.2202950558,-9.313198,-1.691786,-1.3184924,9.556998433915208
1484252.3762360446,-9.279697,-1.718108,-1.3448143,9.532743414828571
1484253.5321770336,-9.310805,-1.7611804,-1.3208853,9.567527586849451
1484254.6881180224,-9.33952,-1.8186102,-1.3831009,9.614933436562358
1484255.8440590112,-9.384986,-1.849718,-1.3352427,9.658275827890986
1484257.0,-9.416093,-1.899969,-1.2825987,9.691117015641266
1484257.9084130782,-9.497452,-1.9645776,-1.2921704,9.784215041655713
1484259.064354067,-9.523774,-1.9861137,-1.2897775,9.813788505562464
1484260.2202950558,-9.557275,-1.9885067,-1.3137065,9.849948684623293
1484261.3762360446,-9.54531,-1.9669704,-1.3256711,9.835614846869076
1484262.5321770336,-9.492666,-1.8951832,-1.3639576,9.77562312508599
1484263.6881180224,-9.411307,-1.8066456,-1.3639576,9.67972355529052
1484264.8440590112,-9.368236,-1.7492158,-1.3974583,9.632055407175798
1484266.0,-9.344306,-1.6798215,-1.4046371,9.597440298131302
1484266.9084130782,-9.375414,-1.7085364,-1.3759222,9.628636777964665
1484268.064354067,-9.416093,-1.742037,-1.3615648,9.672195148910976
1484269.2202950558,-9.466345,-1.7922882,-1.3304569,9.725949836064437
1484270.3762360446,-9.523774,-1.8353605,-1.2945633,9.785024961937662
1484271.5321770336,-9.54531,-1.8975761,-1.2203832,9.80831653273045
1484272.6881180224,-9.566847,-1.8856115,-1.225169,9.827569960519348
1484273.8440590112,-9.614705,-1.8688612,-1.2682413,9.876417893999633
1484275.0,-9.593168,-1.8688612,-1.301742,9.859819810506348
1484275.9084130782,-9.5907755,-1.8640754,-1.2610626,9.851295887821266
1484277.064354067,-9.5405245,-1.8162172,-1.2467052,9.791553835238977
1484278.2202950558,-9.507024,-1.7683591,-1.2347406,9.748599057937358
1484279.3762360446,-9.435237,-1.7300725,-1.1749178,9.664226815332
1484280.5321770336,-9.411307,-1.6870002,-1.1103094,9.625562637413847
1484281.6881180224,-9.406522,-1.6319634,-1.1103094,9.61138635365117
1484282.8440590112,-9.370628,-1.6223917,-1.0457008,9.567356693765188
1484284.0,-9.368236,-1.6271775,-1.0265576,9.563753074725424
1484284.9084130782,-9.377807,-1.6487137,-0.95237744,9.569145405000263
1484286.064354067,-9.387379,-1.6774286,-0.97152066,9.585431841630598
1484287.2202950558,-9.401736,-1.6893932,-0.9021264,9.594817415640549
1484288.3762360446,-9.375414,-1.639142,-0.93562704,9.563502084777268
1484289.5321770336,-9.32277,-1.6032485,-0.9571632,9.507923412453767
1484290.6881180224,-9.294055,-1.4883888,-0.93802,9.459103608872802
1484291.8440590112,-9.1983385,-1.4142087,-1.0074143,9.360785275797241
1484293.0,-9.155267,-1.3208853,-0.96194905,9.299946117684822
1484293.9084130782,-9.126552,-1.2586696,-0.95237744,9.262031276069473
1484295.064354067,-9.100229,-1.3304569,-0.9667349,9.247640768438004
1484296.2202950558,-9.090658,-1.301742,-0.96194905,9.233630980406565
1484297.3762360446,-9.124159,-1.3137065,-0.885376,9.260669138177828
1484298.5321770336,-9.145695,-1.328064,-0.8231604,9.2782047867704
1484299.6881180224,-9.205518,-1.354386,-0.79205257,9.338269130784548
1484300.8440590112,-9.253376,-1.3687434,-0.75615895,9.38457256618993
1484302.0,-9.26534,-1.3998512,-0.69872916,9.396506326118008
1484303.9084130782,-9.294055,-1.4118158,-0.7202653,9.428226996553422
1484305.064354067,-9.320377,-1.3998512,-0.7154795,9.45203267658289
1484306.2202950558,-9.26534,-1.3448143,-0.7394086,9.391580053156042
1484307.3762360446,-9.19116,-1.2395264,-0.7322299,9.303225702322338
1484308.5321770336,-9.1983385,-1.2132044,-0.7202653,9.305916299814097
1484309.6881180224,-9.15048,-1.1725249,-0.66283554,9.249078322979381
1484310.8440590112,-9.090658,-1.1414171,-0.63172776,9.18378875148438
1484312.0,-9.054764,-1.0983448,-0.5934412,9.140420387117898
1484312.9084130782,-9.093051,-1.0815945,-0.6125845,9.17761858657634
1484314.064354067,-9.090658,-1.1007377,-0.5551547,9.173869581485087
1484315.2202950558,-9.073908,-1.1079165,-0.51926106,9.156031750265427
1484316.3762360446,-9.069121,-1.117488,-0.5551547,9.154557984070946
1484317.5321770336,-9.105016,-1.0959519,-0.5551547,9.187525437695491
1484318.6881180224,-9.136123,-1.067237,-0.49054617,9.211317703249609
1484319.8440590112,-9.13373,-1.0552725,-0.47140288,9.206565289912875
1484321.0,-9.15766,-1.014593,-0.42833054,9.223643677134634
1484322.9084130782,-9.186374,-1.0361292,-0.39961565,9.253254760066513
1484324.064354067,-9.215089,-1.0265576,-0.33500713,9.278141816182247
1484325.2202950558,-9.224661,-1.0169859,-0.3517575,9.287215095200823
1484326.3762360446,-9.193553,-0.99784267,-0.36372203,9.254696130775395
1484327.5321770336,-9.183981,-0.93323416,-0.42593765,9.241096032800407
1484328.6881180224,-9.155267,-0.9021264,-0.46422416,9.211310979094868
1484329.8440590112,-9.081086,-0.80162424,-0.5025107,9.130237749651762
1484331.0,-9.078693,-0.7322299,-0.46422416,9.119996232753097
1484331.9084130782,-9.102622,-0.7489802,-0.48576033,9.146292238556438
1484333.064354067,-9.126552,-0.7776951,-0.46422416,9.171382946317078
1484334.2202950558,-9.215089,-0.80880296,-0.39961565,9.259142518276231
1484335.3762360446,-9.320377,-0.89494765,-0.36611494,9.370400144479463
1484336.5321770336,-9.382592,-0.94280577,-0.34457877,9.436135325817663
1484337.6881180224,-9.451987,-0.9547703,-0.32064968,9.50549634638903
1484338.8440590112,-9.485488,-0.93802,-0.31107804,9.536830378354972
1484340.0,-9.502238,-0.9140909,-0.3613291,9.552939228353418
1484340.9084130782,-9.463951,-0.8446966,-0.39482984,9.50977241993766
1484342.064354067,-9.463951,-0.8231604,-0.3517575,9.50619245088881
1484343.2202950558,-9.4495945,-0.80880296,-0.3230426,9.489644617368437
1484344.3762360446,-9.463951,-0.7705164,-0.25604117,9.498716815117973
1484345.5321770336,-9.432844,-0.7633377,-0.28954187,9.468107776481022
1484346.6881180224,-9.387379,-0.8231604,-0.28954187,9.427847688006645
1484347.8440590112,-9.380199,-0.83991075,-0.30389932,9.422629046304593
1484349.0,-9.370628,-0.90691215,-0.24886245,9.417700955181239
1484349.9084130782,-9.356271,-0.9284483,-0.24646953,9.405454295271031
1484351.064354067,-9.380199,-0.9284483,-0.21536173,9.428495648836163
1484352.2202950558,-9.344306,-0.93562704,-0.21057591,9.393391016746161
1484353.3762360446,-9.310805,-0.96434194,-0.21775463,9.36314382054203
1484354.5321770336,-9.294055,-1.0002356,-0.21775463,9.350259177018508
1484355.6881180224,-9.334735,-1.0265576,-0.208183,9.3933188058232
1484356.8440590112,-9.332341,-1.040915,-0.22493336,9.392906237898197
1484358.0,-9.317985,-1.0600582,-0.21057591,9.38045361704244
1484359.9084130782,-9.349092,-1.0815945,-0.21775463,9.413967546458862
1484361.064354067,-9.401736,-1.093559,-0.234505,9.46802533241235
1484362.2202950558,-9.411307,-1.1246668,-0.22971918,9.481051933247235
1484363.3762360446,-9.432844,-1.1150951,-0.27518442,9.502510693253164
1484364.5321770336,-9.45438,-1.0959519,-0.2943277,9.522239261145506
1484365.6881180224,-9.466345,-1.1246668,-0.34697166,9.539232275340108
1484366.8440590112,-9.521381,-1.0624512,-0.31347096,9.585601845596642
1484368.0,-9.485488,-1.067237,-0.37807947,9.552822697922771
1484368.9084130782,-9.47113,-1.0504867,-0.36611494,9.536239611768787
1484370.064354067,-9.47113,-1.0193789,-0.4091873,9.534614363735248
1484371.2202950558,-9.418487,-0.9858781,-0.4402951,9.480174722667964
1484372.3762360446,-9.365842,-0.9739136,-0.4737958,9.428254691581396
1484373.5321770336,-9.356271,-0.9284483,-0.4737958,9.414154541503528
1484374.6881180224,-9.370628,-0.93323416,-0.5025107,9.430382394971552
1484375.8440590112,-9.394557,-0.9834852,-0.5168682,9.4600262738028
1484377.0,-9.389771,-1.0457008,-0.5360114,9.463012090053123
1484377.9084130782,-9.468738,-1.1079165,-0.5695121,9.550331005554868
1484379.064354067,-9.475916,-1.1940612,-0.58626246,9.568828029618187
1484380.2202950558,-9.502238,-1.2012398,-0.63651353,9.598992318968753
1484381.3762360446,-9.538132,-1.2275618,-0.66044265,9.639453019553663
1484382.5321770336,-9.547704,-1.1940612,-0.67240715,9.645546391798266
1484383.6881180224,-9.533346,-1.1820966,-0.69633627,9.631558675955054
1484384.8440590112,-9.4998455,-1.1533817,-0.72983694,9.597396304662723
1484386.0,-9.47113,-1.14381,-0.7346228,9.568190813904154
1484386.9084130782,-9.432844,-1.1342385,-0.80162424,9.534550032664038
1484388.064354067,-9.432844,-1.0959519,-0.84948236,9.534216107022159
1484389.2202950558,-9.425665,-1.1390243,-0.8877689,9.535652608396695
1484390.3762360446,-9.4137,-1.1868824,-0.8997334,9.53078998365326
1484391.5321770336,-9.495059,-1.2036327,-0.93802,9.616899636077642
1484392.6881180224,-9.45438,-1.1629534,-0.9404129,9.571945372674145
1484393.8440590112,-9.473523,-1.0959519,-0.9475916,9.583667275058811
1484395.0,-9.495059,-1.0169859,-0.98109233,9.599632695799597
1484395.9084130782,-9.461558,-1.0098072,-1.0169859,9.569485393130325
1484397.064354067,-9.4998455,-0.9858781,-1.0193789,9.605110800698503
1484398.2202950558,-9.507024,-0.9475916,-1.0528796,9.61197121453569
1484399.3762360446,-9.521381,-0.9858781,-1.1414171,9.640097757356665
1484400.5321770336,-9.5500965,-0.97152066,-1.1246668,9.665043764160684
1484401.6881180224,-9.605133,-1.0217718,-1.1318455,9.725413708158356
1484402.8440590112,-9.6410265,-1.0839874,-1.1677392,9.771797966407085
1484404.0,-9.710421,-1.1127023,-1.170132,9.843759002692533
1484405.9084130782,-9.724778,-1.1390243,-1.1629534,9.860078301709681
1484407.064354067,-9.870746,-1.2012398,-1.1892753,10.01443854605989
1484408.2202950558,-9.928176,-1.2443122,-1.196454,10.07712725493535
1484409.3762360446,-9.966462,-1.2802058,-1.1605604,10.115146668726352
1484410.5321770336,-10.057393,-1.2802058,-1.1485959,10.203399109527151
1484411.6881180224,-10.054999,-1.2730271,-1.1557746,10.200951809186266
1484412.8440590112,-10.057393,-1.2323477,-1.1749178,10.200503254589997
1484414.0,-10.028678,-1.2060257,-1.170132,10.1684851041917
1484414.9084130782,-9.966462,-1.1868824,-1.1797037,10.105976224426191
1484416.064354067,-9.932961,-1.1677392,-1.2084186,10.07410564663502
1484417.2202950558,-9.947319,-1.1629534,-1.2155973,10.088572381367934
1484418.3762360446,-9.961677,-1.1127023,-1.2179902,10.097356841671504
1484419.5321770336,-9.935354,-1.1055236,-1.1868824,10.066882902214703
1484420.6881180224,-9.949712,-1.1007377,-1.170132,10.078571390061652
1484421.8440590112,-9.86596,-1.0792016,-1.1581675,9.992156662757985
1484423.0,-9.885103,-1.119881,-1.1414171,10.013602137639703
1484423.9084130782,-9.916211,-1.093559,-1.1246668,10.039521268169327
1484425.064354067,-9.88271,-1.0983448,-1.1390243,10.008581048269406
1484426.2202950558,-9.899461,-1.0959519,-1.1222739,10.022970486051321
1484427.3762360446,-9.909033,-1.117488,-1.1342385,10.036145246065107
1484428.5321770336,-9.964069,-1.1773108,-1.1533817,10.09945647559573
1484429.6881180224,-9.973641,-1.2084186,-1.1629534,10.113666541876816
1484430.8440590112,-10.040643,-1.2538838,-1.1366314,10.182272210897594
1484432.0,-10.074143,-1.251491,-1.117488,10.212901954766528
1484432.9084130782,-10.122002,-1.277813,-1.0720228,10.258506881349392
1484434.064354067,-10.155502,-1.2610626,-0.9858781,10.280878142512067
1484435.2202950558,-10.160288,-1.2323477,-1.0050215,10.283977893407858
1484436.3762360446,-10.153109,-1.2084186,-0.96434194,10.27014377971165
1484437.5321770336,-10.1435375,-1.2371335,-0.9786994,10.265461744426739
1484438.6881180224,-10.114822,-1.3160994,-0.97152066,10.246247806644694
1484439.8440590112,-10.138752,-1.3472073,-0.96434194,10.273228071250061
1484441.0,-10.1435375,-1.3926725,-0.9451987,10.282231775672255
1484442.9084130782,-10.122002,-1.3926725,-0.9404129,10.260547626844614
1484444.064354067,-10.11243,-1.3902797,-0.9499845,10.251662728522254
1484445.2202950558,-10.047821,-1.3615648,-0.9834852,10.187237539748402
1484446.3762360446,-10.009535,-1.3160994,-1.0050215,10.145589029837923
1484447.5321770336,-9.999963,-1.3089207,-1.0576653,10.140571447757841
1484448.6881180224,-10.01432,-1.3472073,-1.0528796,10.159238555308633
1484449.8440590112,-9.973641,-1.2897775,-0.99066395,10.105367675558217
1484451.0,-9.94014,-1.3400285,-0.96434194,10.076309591197326
1484451.9084130782,-9.971248,-1.3376356,-0.90691215,10.101363537845224
1484453.064354067,-10.002356,-1.3208853,-0.8805902,10.127551660042428
1484454.2202950558,-10.050214,-1.3496002,-0.9093051,10.18111280315281
1484455.3762360446,-10.119608,-1.3615648,-0.89734054,10.250148526874648
1484456.5321770336,-10.179431,-1.3519931,-0.8614469,10.304891633963367
1484457.6881180224,-10.241647,-1.4142087,-0.8614469,10.374652296886113
1484458.8440590112,-10.279933,-1.4213874,-0.83033913,10.41089946624099
1484460.0,-10.339756,-1.4166015,-0.86623275,10.472233435447798
1484460.9084130782,-10.315826,-1.4189945,-0.8351249,10.446398664224253
1484462.064354067,-10.291898,-1.3615648,-0.885376,10.41925687409515
1484463.2202950558,-10.311041,-1.3711363,-0.87819725,10.438812751781988
1484464.3762360446,-10.26079,-1.3352427,-0.87819725,10.38450359439058
1484465.5321770336,-10.256004,-1.3137065,-0.82076746,10.37232384953117
1484466.6881180224,-10.253612,-1.2754201,-0.832732,10.366132261448916
1484467.8440590112,-10.246432,-1.2538838,-0.7896597,10.353026405661803
1484469.0,-10.229682,-1.2610626,-0.7992313,10.338058007824413
1484469.9084130782,-10.229682,-1.2443122,-0.8159817,10.337336833388363
1484471.064354067,-10.227289,-1.2658484,-0.84230363,10.339694766598033
1484472.2202950558,-10.253612,-1.251491,-0.8566611,10.365165556317864
1484473.3762360446,-10.251218,-1.2706342,-0.8614469,10.365523262973907
1484474.5321770336,-10.2344675,-1.277813,-0.8518753,10.349049357224812
1484475.6881180224,-10.265575,-1.2825987,-0.83751786,10.379235312472959
1484476.8440590112,-10.337363,-1.2084186,-0.8351249,10.441206008177167
1484478.0,-10.275147,-1.2323477,-0.7992313,10.379600059549693
1484479.9084130782,-10.33497,-1.2586696,-0.82076746,10.443635060947841
1484481.064354067,-10.375649,-1.2490981,-0.832732,10.483691182901593
1484482.2202950558,-10.299076,-1.222776,-0.8279462,10.404404957038457
1484483.3762360446,-10.270362,-1.2179902,-0.82076746,10.374849153685798
1484484.5321770336,-10.241647,-1.1677392,-0.832732,10.341585502022872
1484485.6881180224,-10.198574,-1.0576653,-0.8614469,10.289395428392268
1484486.8440590112,-10.157895,-1.0576653,-0.81119585,10.24497561856085
1484488.0,-10.107644,-0.9954498,-0.7968384,10.18775436348809
1484488.9084130782,-10.081322,-1.0002356,-0.7944455,10.161922464556676
1484490.064354067,-10.086107,-0.9499845,-0.81358874,10.163363203366494
1484491.2202950558,-10.122002,-0.9691278,-0.7776951,10.197987195976511
1484492.3762360446,-10.167466,-0.98109233,-0.72505116,10.240390920553676
1484493.5321770336,-10.198574,-0.9739136,-0.7130866,10.26975714575766
1484494.6881180224,-10.308648,-0.93562704,-0.6556568,10.371764911781861
1484495.8440590112,-10.378042,-0.9164838,-0.6221561,10.436990779060489
1484497.0,-10.411543,-0.94280577,-0.6819788,10.476364132868031
1484497.9084130782,-10.44983,-0.9547703,-0.7130866,10.517557979576896
1484499.064354067,-10.454616,-0.93562704,-0.7776951,10.525169990741203
1484500.2202950558,-10.3852215,-0.89494765,-0.75855184,10.451275414717102
1484501.3762360446,-10.423508,-0.9164838,-0.6580497,10.484392733458458
1484502.5321770336,-10.428293,-0.95237744,-0.54797596,10.486019041314385
1484503.6881180224,-10.43308,-0.94280577,-0.4498667,10.485247782199245
1484504.8440590112,-10.447436,-0.911698,-0.37090075,10.493697136074138
1484506.0,-10.447436,-0.92605543,-0.34936458,10.494215227604542
1484506.9084130782,-10.454616,-0.86623275,-0.31586388,10.495195323352359
1484508.064354067,-10.447436,-0.8351249,-0.31586388,10.485519661103337
1484509.2202950558,-10.406757,-0.83991075,-0.31586388,10.445372722679801
1484510.3762360446,-10.33497,-0.8351249,-0.27757734,10.372371362382928
1484511.5321770336,-10.282326,-0.7992313,-0.24168372,10.316172238853358
1484512.6881180224,-10.212932,-0.84948236,-0.22732627,10.250720830732211
1484513.8440590112,-10.236861,-0.8710185,-0.22014755,10.276208508221028
1484515.0,-10.222504,-0.8877689,-0.20100428,10.262949106879637
1484516.9084130782,-10.215324,-0.93084127,-0.18425392,10.259301116642721
1484518.064354067,-10.172253,-0.93562704,-0.11485959,10.215836812488888
1484519.2202950558,-10.14593,-0.9212696,-0.107680865,10.188239711033075
1484520.3762360446,-10.141145,-0.89494765,-0.08614469,10.180922066044937
1484521.5321770336,-10.12918,-0.8829831,-0.033500712,10.167648151120796
1484522.6881180224,-10.12918,-0.86862564,-0.047858164,10.166468825444106
1484523.8440590112,-10.11243,-0.81358874,-0.019143265,10.145123636868584
1484525.0,-10.102858,-0.82076746,-0.016750356,10.13615704130441
1484525.9084130782,-10.064571,-0.8183746,-0.023929082,10.097816546210945
1484527.064354067,-10.090894,-0.8183746,0.004785816,10.124025958540207
1484528.2202950558,-10.0932865,-0.78487384,0.043072347,10.123848800869888
1484529.3762360446,-10.045428,-0.7705164,0.06221561,10.075127294877253
1484530.5321770336,-10.0430355,-0.75855184,0.026321989,10.071675917906243
1484531.6881180224,-10.088501,-0.78487384,0.033500712,10.119041539069887
1484532.8440590112,-10.153109,-0.8279462,0.009571632,10.186815444098052
1484534.0,-10.167466,-0.84708947,0.09093051,10.203097264506976
1484534.9084130782,-10.220111,-0.832732,0.071787246,10.254231557987817
1484536.064354067,-10.241647,-0.8231604,0.071787246,10.274924803881799
1484537.2202950558,-10.200967,-0.8255533,0.08614469,10.234680595594819
1484538.3762360446,-10.1842165,-0.7657306,0.08614469,10.213326097714878
1484539.5321770336,-10.18661,-0.7394086,0.069394335,10.213645967213866
1484540.6881180224,-10.098072,-0.6676214,0.035893623,10.12018106572674
1484541.8440590112,-10.038249,-0.6101916,-0.07657306,10.057069165926489
1484543.0,-10.031071,-0.53840435,-0.208183,10.04766663522576
1484543.9084130782,-9.976034,-0.55036885,-0.22014755,9.993629229863261
1484545.064354067,-9.987998,-0.571905,-0.24407662,10.007334948599432
1484546.2202950558,-10.009535,-0.5551547,-0.2392908,10.027773817957888
1484547.3762360446,-10.021499,-0.6006199,-0.25125536,10.042624942075939
1484548.5321770336,-9.983212,-0.6652284,-0.31586388,10.010335691264265
1484549.6881180224,-10.052607,-0.6819788,-0.30389932,10.08029550046996
1484550.8440590112,-10.07175,-0.68915755,-0.3278284,10.100621646763559
1484552.0,-10.052607,-0.70112205,-0.33740005,10.082674170039672
1484552.9084130782,-10.057393,-0.7418015,-0.4091873,10.09301033727463
1484554.064354067,-10.07175,-0.7776951,-0.5168682,10.114944906782007
1484555.2202950558,-10.045428,-0.7633377,-0.55754757,10.089805123997102
1484556.3762360446,-9.99757,-0.8159817,-0.59583414,10.048494930188522
1484557.5321770336,-9.952105,-0.89734054,-0.5886554,10.009801654163864
1484558.6881180224,-9.932961,-0.8734115,-0.598227,9.989216056297025
1484559.8440590112,-9.894675,-0.83033913,-0.67240715,9.952195124785549
1484561.0,-9.8922825,-0.81119585,-0.703515,9.950388189517456
1484562.9084130782,-9.909033,-0.78008807,-0.79205257,9.97119950987287
1484564.064354067,-9.923389,-0.75615895,-0.8351249,9.987134684261854
1484565.2202950558,-9.959284,-0.7394086,-0.8901618,10.02628799210302
1484566.3762360446,-9.9927845,-0.78248096,-0.87819725,10.061771659410203
1484567.5321770336,-9.99757,-0.77290934,-0.885376,10.06641373152004
1484568.6881180224,-10.019106,-0.80162424,-0.9021264,10.091527064967352
1484569.8440590112,-10.054999,-0.81119585,-0.859054,10.124179837002808
1484571.0,-10.011928,-0.8351249,-0.84708947,10.082345780916706
1484571.9084130782,-10.059786,-0.8446966,-0.8925547,10.134567608158706
1484573.064354067,-10.117215,-0.8542682,-0.93323416,10.196015864598639
1484574.2202950558,-10.203361,-0.8805902,-0.9786994,10.287947672505794
1484575.3762360446,-10.299076,-0.86862564,-0.95955616,10.380087908126566
1484576.5321770336,-10.356506,-0.885376,-0.9021264,10.433357045121621
1484577.6881180224,-10.387614,-0.9021264,-0.8183746,10.458780695688102
1484578.8440590112,-10.445044,-0.8997334,-0.63651353,10.503028793014167
1484580.0,-10.454616,-0.90691215,-0.4977249,10.505675391489763
1484580.9084130782,-10.500081,-0.9475916,-0.43790218,10.551842927479555
1484582.064354067,-10.483331,-1.0098072,-0.3613291,10.538050016736475
1484583.2202950558,-10.488116,-1.093559,-0.31825677,10.549774210265726
1484584.3762360446,-10.464187,-1.2060257,-0.22254045,10.535807126742387
1484585.5321770336,-10.504867,-1.3113136,-0.088537596,10.586765934464568
1484586.6881180224,-10.54076,-1.3137065,0.07657306,10.622584882186633
1484587.8440590112,-10.430686,-1.3448143,0.13878867,10.517936975804753
1484589.0,-10.351721,-1.3735292,0.2991135,10.446730541704227
1484589.9084130782,-10.248825,-1.4261732,0.3852582,10.354748077944267
1484591.064354067,-10.088501,-1.433352,0.442688,10.199427584342615
1484592.2202950558,-9.937747,-1.4261732,0.39004403,10.047134903928875
1484593.3762360446,-9.810924,-1.4429235,0.3565433,9.9228716148806
1484594.5321770336,-9.715207,-1.4381378,0.33979294,9.826950016496047
1484595.6881180224,-9.636241,-1.3950654,0.30868515,9.741593021790054
1484596.8440590112,-9.521381,-1.3735292,0.22971918,9.622684111622572
1484598.0,-9.456773,-1.3472073,0.24886245,9.555493477666253
1484599.9084130782,-9.442415,-1.3328499,0.27518442,9.539990374899011
1484601.064354067,-9.451987,-1.2658484,0.27518442,9.540343646062352
1484602.2202950558,-9.466345,-1.2610626,0.30868515,9.554959605460104
1484603.3762360446,-9.507024,-1.2873845,0.30389932,9.598605054074927
1484604.5321770336,-9.624276,-1.3232782,0.30150643,9.71949895036275
1484605.6881180224,-9.705635,-1.3591717,0.24407662,9.803380634237175
1484606.8440590112,-9.839638,-1.4046371,0.19621846,9.941327025995331
1484608.0,-9.909033,-1.3854938,0.10289505,10.005954000306115
1484608.9084130782,-9.966462,-1.3783151,0.040679436,10.061400107780491
1484610.064354067,-9.9927845,-1.2969562,-0.045465253,10.076701074130812
1484611.2202950558,-9.94014,-1.1820966,-0.13639577,10.011110797379352
1484612.3762360446,-9.990392,-1.1246668,-0.021536173,10.053520355150912
1484613.5321770336,-9.8922825,-1.0983448,-0.0071787243,9.953073188396429
1484614.6881180224,-9.88271,-1.0600582,-0.014357449,9.939410770655824
1484615.8440590112,-9.987998,-0.9451987,-0.12682413,10.033423592694366
1484617.0,-10.212932,-0.87580436,-0.17468229,10.251903589873379
1484617.9084130782,-10.33497,-0.8231604,-0.22732627,10.370191665444775
1484619.064354067,-10.332577,-0.90451926,-0.21536173,10.374328085586486
1484620.2202950558,-10.296683,-1.0337363,-0.14118157,10.349406928715014
1484621.3762360446,-10.157895,-1.1150951,-0.088537596,10.219300701074143
1484622.5321770336,-10.0334635,-1.2754201,-0.1172525,10.114881827588126
1484623.6881180224,-10.009535,-1.2825987,-0.11485959,10.09202868936081
1484624.8440590112,-10.0430355,-1.1844895,-0.17468229,10.114153021005276
1484626.0,-9.9927845,-1.0648441,-0.16511066,10.05071622078699
1484626.9084130782,-9.913818,-1.0600582,-0.08135887,9.970663467906181
1484628.064354067,-9.698457,-1.2132044,-0.08614469,9.774423461496005
1484629.2202950558,-9.645813,-1.1150951,-0.16271774,9.71141712500929
1484630.3762360446,-9.662563,-0.99305683,-0.19143265,9.71534518460691
1484631.5321770336,-9.643419,-0.93562704,-0.2632199,9.692275928970252
1484632.6881180224,-9.574025,-0.89734054,-0.33979294,9.621987008275699
1484633.8440590112,-9.492666,-1.0241647,-0.27279153,9.55165097452382
1484635.0,-9.296448,-1.1462029,-0.13400285,9.367800343115801
1484636.9084130782,-9.406522,-1.1055236,-0.234505,9.474166515407356
1484638.064354067,-9.837245,-1.0337363,-0.2057901,9.893550904160785
1484639.2202950558,-10.114822,-1.014593,-0.13400285,10.166463485949336
1484640.3762360446,-10.282326,-1.0552725,-0.031107806,10.336382138597932
1484641.5321770336,-10.313434,-1.1868824,0.031107806,10.381549903524999
1484642.6881180224,-10.229682,-1.3472073,0.009571632,10.318015940404262
1484643.8440590112,-10.210539,-1.4022441,-0.014357449,10.306386433801501
1484645.0,-10.155502,-1.40703,-0.06460852,10.252713228885346
1484645.9084130782,-10.081322,-1.380708,-0.13400285,10.176313901052588
1484647.064354067,-10.045428,-1.3496002,-0.18425392,10.137356357061707
1484648.2202950558,-9.966462,-1.3783151,-0.1459674,10.06237664740268
1484649.3762360446,-9.8922825,-1.3352427,-0.16271774,9.9833162421422
1484650.5321770336,-9.870746,-1.3735292,-0.14357449,9.96688630887036
1484651.6881180224,-9.842031,-1.3687434,-0.17946811,9.938372175689112
1484652.8440590112,-9.86596,-1.2060257,-0.1459674,9.94047137677702
1484654.0,-9.858782,-1.1150951,-0.1483603,9.92275316553748
1484655.9084130782,-9.815709,-1.1031306,-0.16032484,9.878802779064799
1484657.064354067,-9.724778,-1.1318455,-0.08614469,9.790801922864615
1484658.2202950558,-9.631455,-1.2299547,-0.019143265,9.70969002830018
1484659.3762360446,-9.619491,-1.2538838,0.0598227,9.701052027405003
1484660.5321770336,-9.612311,-1.3304569,0.13160995,9.704842064784858
1484661.6881180224,-9.686492,-1.3854938,0.31586388,9.790173151001524
1484662.8440590112,-9.710421,-1.4812101,0.46422416,9.833705478013398
1484664.0,-9.729565,-1.5027462,0.55754757,9.86070689776612
1484664.9084130782,-9.758279,-1.4118158,0.39482984,9.867782096171615
1484666.064354067,-9.626669,-1.3424214,-0.33500713,9.72558898102782
1484667.2202950558,-9.775029,-1.1844895,-0.7968384,9.878722526833407
1484668.3762360446,-10.002356,-0.90451926,-0.7681235,10.072501891471612
1484669.5321770336,-10.057393,-0.84708947,-0.3230426,10.098171668576873
1484670.6881180224,-10.026285,-0.8255533,0.21536173,10.062520053501235
1484671.8440590112,-9.98082,-0.7106937,0.79205257,10.037390132961022
1484673.0,-9.880318,-0.7106937,0.9834852,9.954547325467027
1484673.9084130782,-9.801352,-0.6748001,0.8997334,9.86566654585181
1484675.064354067,-9.698457,-0.78008807,0.5647263,9.74615418366224
1484676.2202950558,-9.652991,-0.9021264,0.18903974,9.696896581430433
1484677.3762360446,-9.731957,-1.0576653,-0.20339718,9.791374436181318
1484678.5321770336,-9.786994,-1.1653463,-0.4115802,9.864719043946042
1484679.6881180224,-9.765458,-1.2323477,-0.42833054,9.852224005520581
1484680.8440590112,-9.664956,-1.3208853,-0.27039862,9.758546401559506
1484682.0,-9.672134,-1.0457008,-0.12682413,9.729324264152515
1484682.9084130782,-9.605133,-0.6843717,0.016750356,9.62949765802329
1484684.064354067,-9.451987,-0.5240469,0.12921704,9.467385090139462
1484685.2202950558,-9.277305,-0.3828653,0.023929082,9.28523271124286
1484686.3762360446,-9.15048,-0.33740005,0.22732627,9.159519652098144
1484687.5321770336,-8.930333,-0.34697166,0.21536173,8.93966540193092
1484688.6881180224,-8.731722,-0.33022133,-0.30389932,8.743247108984592
1484689.8440590112,-9.028442,-0.35893622,-0.416366,9.045162287286386
1484691.0,-9.4137,-0.40440148,-0.2584341,9.425925759895895
1484692.9084130782,-9.731957,-0.5025107,-0.07418015,9.74520429483741
1484694.064354067,-9.925783,-0.6125845,0.088537596,9.945062435130042
1484695.2202950558,-10.0430355,-0.8255533,0.17946811,10.078507285700006
1484696.3762360446,-10.110037,-0.9140909,0.11246668,10.151899283825763
1484697.5321770336,-10.081322,-1.0122001,0.057429794,10.13217155852401
1484698.6881180224,-10.064571,-1.0098072,0.040679436,10.115184368647274
1484699.8440590112,-10.016713,-0.99784267,0.023929082,10.066320177672031
1484701.0,-9.937747,-0.93323416,0.057429794,9.981635117286086
1484701.9084130782,-9.971248,-0.92366254,0.08135887,10.01426774312685
1484703.064354067,-9.947319,-0.8734115,0.040679436,9.985672623945096
1484704.2202950558,-9.954497,-0.9284483,0.040679436,9.997783833695104
1484705.3762360446,-9.9927845,-0.92366254,0.019143265,10.035400391406133
1484706.5321770336,-10.004748,-0.93562704,-0.040679436,10.048484229872505
1484707.6881180224,-10.019106,-0.9404129,-0.0598227,10.063321530049496
1484708.8440590112,-10.038249,-0.9404129,-0.11246668,10.08283036466436
1484710.0,-10.102858,-1.014593,-0.06460852,10.153881670803022
1484710.9084130782,-10.07175,-1.0457008,-0.07657306,10.126179025631455
1484712.064354067,-10.069357,-1.0720228,-0.07418015,10.126533758983024
1484713.2202950558,-10.0837145,-1.067237,-0.055036888,10.140183528453514
1484714.3762360446,-10.177038,-1.1055236,0.009571632,10.236912449549429
1484715.5321770336,-10.224896,-1.117488,0.045465253,10.285880843670625
1484716.6881180224,-10.241647,-1.1414171,0.1459674,10.306089110358215
1484717.8440590112,-10.258397,-1.1342385,0.27039862,10.324452595570826
1484719.0,-10.279933,-1.1103094,0.21536173,10.341962585649107
1484719.9084130782,-10.330184,-1.0337363,0.09571633,10.382219118648111
1484721.064354067,-10.354114,-1.0313433,-0.10289505,10.405860517937253
1484722.2202950558,-10.291898,-1.0504867,-0.22493336,10.347815313665091
1484723.3762360446,-10.289505,-1.0265576,-0.24646953,10.34352362013841
1484724.5321770336,-10.339756,-1.0337363,-0.1196454,10.391991142183235
1484725.6881180224,-10.416329,-1.0576653,-0.03828653,10.46995852816259
1484726.8440590112,-10.397185,-1.0959519,0.055036888,10.454931637766904
1484728.0,-10.430686,-1.1318455,0.03828653,10.491985061219145
1484728.9084130782,-10.464187,-1.119881,-0.016750356,10.523954750926865
1484730.064354067,-10.543153,-1.1270597,-0.07657306,10.603499525264802
1484731.2202950558,-10.567082,-1.1079165,-0.033500712,10.625056388716285
1484732.3762360446,-10.634084,-1.0839874,0.040679436,10.689266860684508
1484733.5321770336,-10.641262,-1.0696299,0.09332342,10.695292157596187
1484734.6881180224,-10.667584,-1.0217718,0.1196454,10.717074275662757
1484735.8440590112,-10.65562,-0.9475916,0.19143265,10.699383808625457
1484737.0,-10.58144,-0.93323416,0.19861138,10.624370331989395
1484738.9084130782,-10.473759,-0.90451926,0.27039862,10.516220713521081
1484740.064354067,-10.428293,-0.8614469,0.36850783,10.47030007574472
1484741.2202950558,-10.31822,-0.80880296,0.3613291,10.356176172459195
1484742.3762360446,-10.179431,-0.72505116,0.34697166,10.211116687278698
1484743.5321770336,-9.861175,-0.59583414,0.30629224,9.883906395717169
1484744.6881180224,-9.497452,-0.3828653,0.18425392,9.506951658511968
1484745.8440590112,-9.061943,-0.19382556,0.040679436,9.064106911299733
1484747.0,-8.7053995,-0.009571632,-0.023929082,8.705437649636275
1484747.9084130782,-8.478073,0.09571633,0.12682413,8.479561767515344
1484749.064354067,-8.334499,-0.047858164,0.37807947,8.343207301182076
1484750.2202950558,-8.324927,-0.3804724,0.6173703,8.356453487563542
1484751.3762360446,-8.47568,-0.84948236,0.9451987,8.570424279161031
1484752.5321770336,-8.817866,-1.3352427,1.1079165,8.986941238977339
1484753.6881180224,-9.317985,-1.61282,1.1509888,9.526321852128998
1484754.8440590112,-9.724778,-1.7922882,1.14381,9.954491722697007
1484756.0,-10.157895,-1.7827165,1.0696299,10.368462618603168
1484756.9084130782,-10.394793,-1.7085364,1.1222739,10.593881104184394
1484758.064354067,-10.5766535,-1.5266753,1.1749178,10.750663633815783
1484759.2202950558,-10.602976,-1.251491,1.225169,10.746644539493154
1484760.3762360446,-10.583833,-1.0122001,1.2395264,10.704134514785675
1484761.5321770336,-10.531189,-0.8446966,1.1868824,10.631469509489378
1484762.6881180224,-10.507259,-0.68915755,1.0600582,10.583059728131097
1484763.8440590112,-10.492902,-0.54558307,0.8877689,10.544514540161716
1484765.0,-10.46658,-0.54797596,0.78008807,10.50990542041622
1484765.9084130782,-10.4259,-0.6269419,0.72744405,10.470034469945933
1484767.064354067,-10.366077,-0.6221561,0.6843717,10.407256853102892
1484768.2202950558,-10.31822,-0.57669085,0.63172776,10.353613681591
1484769.3762360446,-10.24404,-0.49533197,0.60301286,10.273720542794099
1484770.5321770336,-10.212932,-0.43550926,0.5551547,10.237277230450578
1484771.6881180224,-10.12918,-0.3565433,0.5264398,10.149115698433974
1484772.8440590112,-10.004748,-0.30389932,0.54797596,10.02435110084131
1484774.0,-9.959284,-0.24407662,0.5527618,9.977597746783836
1484775.9084130782,-9.894675,-0.24646953,0.5551547,9.913301030725108
1484777.064354067,-9.973641,-0.22254045,0.54797596,9.99116192950075
1484778.2202950558,-9.935354,-0.2392908,0.5240469,9.952042219850169
1484779.3762360446,-9.899461,-0.3254355,0.5001178,9.917426791716593
1484780.5321770336,-9.822887,-0.4091873,0.48336744,9.843281330090207
1484781.6881180224,-9.810924,-0.45225963,0.49054617,9.833585513514661
1484782.8440590112,-9.822887,-0.5072965,0.56711924,9.852313585450853
1484784.0,-9.818102,-0.5647263,0.5431901,9.849319680112616
1484784.9084130782,-9.789387,-0.6652284,0.5814767,9.829178084284486
1484786.064354067,-9.775029,-0.7130866,0.598227,9.819244369780678
1484787.2202950558,-9.813316,-0.7059079,0.5695121,9.855141851398427
1484788.3762360446,-9.786994,-0.70830077,0.50968945,9.825819297761377
1484789.5321770336,-9.7176,-0.77290934,0.48336744,9.760265503044032
1484790.6881180224,-9.753493,-0.77530223,0.442688,9.7942683194936
1484791.8440590112,-9.758279,-0.75376606,0.36850783,9.794282532979137
1484793.0,-9.724778,-0.73701566,0.32064968,9.75793602406028
1484793.9084130782,-9.715207,-0.6269419,0.2368979,9.738296761438779
1484795.064354067,-9.672134,-0.51926106,0.20339718,9.688197901324079
1484796.2202950558,-9.6410265,-0.42593765,0.15075321,9.651608227943937
1484797.3762360446,-9.743921,-0.3230426,0.05025107,9.749403989254517
1484798.5321770336,-9.724778,-0.35893622,0.002392908,9.731400109199118
1484799.6881180224,-9.813316,-0.3254355,-0.009571632,9.818715333313996
1484800.8440590112,-9.885103,-0.36611494,0.08135887,9.892215158175034
1484802.0,-10.045428,-0.39961565,0.1172525,10.054057117386252
1484802.9084130782,-10.169859,-0.48336744,0.23211208,10.183985083434436
1484804.064354067,-10.303863,-0.6006199,0.2584341,10.324588377804115
1484805.2202950558,-10.454616,-0.7154795,0.3254355,10.484122037015617
1484806.3762360446,-10.547939,-0.82076746,0.4115802,10.587826719027277
1484807.5321770336,-10.650834,-0.9140909,0.54558307,10.703900595357256
1484808.6881180224,-10.701085,-1.0720228,0.56711924,10.769590395800718
1484809.8440590112,-10.710656,-1.1581675,0.5838696,10.788902058050041
1484811.0,-10.708263,-1.2682413,0.61497736,10.800626353388367
1484812.9084130782,-10.703478,-1.304135,0.571905,10.797790733466453
1484814.064354067,-10.701085,-1.3376356,0.5431901,10.798034296127717
1484815.2202950558,-10.708263,-1.3591717,0.5264398,10.8070062020096
1484816.3762360446,-10.71305,-1.3400285,0.55754757,10.8109192937569
1484817.5321770336,-10.765694,-1.2897775,0.5886554,10.858646714995908
1484818.6881180224,-10.806373,-1.2825987,0.571905,10.897239658252714
1484819.8440590112,-10.842267,-1.2562767,0.5312256,10.927725540310172
1484821.0,-10.882946,-1.2443122,0.48576033,10.964615341551502
1484821.9084130782,-10.921232,-1.2419193,0.5025107,11.003099061135048
1484823.064354067,-10.97627,-1.2467052,0.4977249,11.058051683939944
1484824.2202950558,-11.007378,-1.3113136,0.5049036,11.096704079938418
1484825.3762360446,-11.045664,-1.430959,0.55036885,11.151557861197123
1484826.5321770336,-11.062414,-1.5338541,0.5934412,11.184001268121364
1484827.6881180224,-11.091129,-1.5912839,0.677193,11.225146649567177
1484828.8440590112,-11.1198435,-1.6582853,0.7633377,11.26869619986845
1484830.0,-11.091129,-1.6558924,0.8183746,11.243880963481601
1484830.9084130782,-11.117451,-1.6152129,0.832732,11.264993210541737
1484832.064354067,-11.071986,-1.5649619,0.84948236,11.214258781239124
1484833.2202950558,-11.045664,-1.4357449,0.832732,11.169668714988642
1484834.3762360446,-10.997806,-1.3759222,0.84230363,11.11550152351211
1484835.5321770336,-10.997806,-1.2754201,0.84948236,11.104055724151928
1484836.6881180224,-10.9284115,-1.2658484,0.832732,11.032950315710607
1484837.8440590112,-10.9284115,-1.2562767,0.87580436,11.035191087484174
1484839.0,-10.870981,-1.2203832,0.9021264,10.976401737308096
1484839.9084130782,-10.870981,-1.2299547,1.0241647,10.988172268359246
1484841.064354067,-10.909268,-1.2682413,1.0744157,11.03516802714196
1484842.2202950558,-10.902089,-1.380708,1.1940612,11.053853685232605
1484843.3762360446,-10.95234,-1.509925,1.2084186,11.121775959533215
1484844.5321770336,-10.87816,-1.6463208,1.251491,11.072983648736848
1484845.6881180224,-10.842267,-1.7683591,1.2730271,11.059043611595726
1484846.8440590112,-10.775265,-1.8927903,1.2945633,11.016573200306253
1484848.0,-10.634084,-1.9621847,1.3519931,10.89778861321955
1484848.9084130782,-10.507259,-2.0411506,1.9550059,10.880755283251073
1484850.064354067,-10.399578,-2.2110472,2.9289196,11.028078813736144
1484851.2202950558,-10.241647,-2.627413,2.2756555,10.815416788078869
1484852.3762360446,-10.3852215,-2.5915194,0.5336185,10.716974718090029
1484853.5321770336,-10.275147,-2.1966896,-0.4785816,10.518228530423539
1484854.6881180224,-9.870746,-1.8688612,-0.54797596,10.061041021391343
1484855.8440590112,-9.621883,-1.5793194,0.13639577,9.751588898173429
1484857.0,-9.511809,-1.2323477,0.911698,9.634541221531011
1484858.9084130782,-9.43045,-0.9188767,1.2730271,9.560246837275558
1484860.064354067,-9.365842,-0.72744405,1.2658484,9.478952652409811
1484861.2202950558,-9.33952,-0.7059079,0.8446966,9.404172060300363
1484862.3762360446,-9.272519,-0.7896597,0.25604117,9.30960408008311
1484863.5321770336,-9.222268,-0.89494765,-0.30150643,9.270494295742589
1484864.6881180224,-9.329948,-0.87580436,-0.47618872,9.383054868045601
1484865.8440590112,-9.504631,-0.84230363,-0.34697166,9.548187010323756
1484867.0,-9.739136,-0.7776951,-0.045465253,9.770242923504531
1484867.9084130782,-9.911426,-0.78008807,0.30389932,9.946720944468524
1484869.064354067,-9.978427,-0.7776951,0.48815325,10.020584247356966
1484870.2202950558,-9.966462,-0.7705164,0.48576033,10.007997972537499
1484871.3762360446,-9.968855,-0.77530223,0.45943835,10.00950783786689
1484872.5321770336,-9.973641,-0.82076746,0.416366,10.016013911044247
1484873.6881180224,-9.973641,-0.84230363,0.30629224,10.013830692511053
1484874.8440590112,-9.964069,-0.83751786,0.26082698,10.00260655609706
1484876.0,-9.959284,-0.8183746,0.21775463,9.99522345210289
1484876.9084130782,-9.894675,-0.81358874,0.16511066,9.929440141494656
1484878.064354067,-9.803744,-0.77530223,0.13160995,9.83523315149763
1484879.2202950558,-9.698457,-0.7226582,0.071787246,9.725608282445087
1484880.3762360446,-9.607526,-0.6652284,0.11246668,9.631185462805332
1484881.5321770336,-9.475916,-0.7346228,0.07418015,9.50463873021957
1484882.6881180224,-9.497452,-0.8159817,0.026321989,9.53247677543165
1484883.8440590112,-9.504631,-0.8901618,-0.031107806,9.546274989331407
1484885.0,-9.564454,-0.9834852,-0.033500712,9.614943876822139
1484885.9084130782,-9.624276,-1.093559,0.009571632,9.686209342503194
1484887.064354067,-9.751101,-1.1892753,-0.033500712,9.823414312197954
1484888.2202950558,-9.949712,-1.2993491,0.03828653,10.034268425002105
1484889.3762360446,-10.18661,-1.4022441,0.18664683,10.284364289893364
1484890.5321770336,-10.390007,-1.5075321,0.37329367,10.505438908329413
1484891.6881180224,-10.574261,-1.6678569,0.42833054,10.713552603431566
1484892.8440590112,-10.727407,-1.7659662,0.39004403,10.878788163602142
1484894.0,-10.832695,-1.7587874,0.36372203,10.980569557018939
1484895.9084130782,-10.842267,-1.7946811,0.3565433,10.99557897860595
1484897.064354067,-10.832695,-1.720501,0.45225963,10.977793194761583
1484898.2202950558,-10.851838,-1.6702498,0.49533197,10.99079051447839
1484899.3762360446,-10.847053,-1.5912839,0.48097453,10.97369945523008
1484900.5321770336,-10.78723,-1.5649619,0.5025107,10.911734684502097
1484901.6881180224,-10.727407,-1.4883888,0.5168682,10.842495787399951
1484902.8440590112,-10.6771555,-1.40703,0.5527618,10.783641713244162
1484904.0,-10.6269045,-1.3854938,0.5072965,10.72884159920683
1484904.9084130782,-10.4857235,-1.3854938,0.49293905,10.588341668802798
1484906.064354067,-10.4259,-1.3902797,0.5264398,10.531353536808844
1484907.2202950558,-10.421115,-1.4501023,0.5910483,10.538110486070224
1484908.3762360446,-10.375649,-1.5003533,0.64129937,10.503162241819568
1484909.5321770336,-10.361292,-1.5697477,0.6532639,10.499868259838431
1484910.6881180224,-10.397185,-1.6247846,0.6556568,10.543778580755971
1484911.8440590112,-10.370864,-1.6822144,0.60301286,10.523701340468985
1484913.0,-10.31822,-1.770752,0.5144752,10.481694106647028
1484913.9084130782,-10.222504,-1.7348584,0.5025107,10.380839980544978
1484915.064354067,-10.095679,-1.742037,0.56711924,10.260558055621935
1484916.2202950558,-9.966462,-1.715715,0.6652284,10.13491843000404
1484917.3762360446,-9.88271,-1.7133222,0.77290934,10.059861766096592
1484918.5321770336,-9.84921,-1.6630712,0.8231604,10.022491530777044
1484919.6881180224,-9.830067,-1.6702498,0.832732,10.005668103765636
1484920.8440590112,-9.760673,-1.6989647,0.7154795,9.93323358125114
1484922.0,-9.751101,-1.6941789,0.63412064,9.917475578164044
1484922.9084130782,-9.6912775,-1.7994668,0.63172776,9.877146364667434
1484924.064354067,-9.6912775,-1.8018597,0.5623334,9.873387301896239
1484925.2202950558,-9.674527,-1.8066456,0.5886554,9.859358811691433
1484926.3762360446,-9.566847,-1.8568966,0.6101916,9.764474399229643
1484927.5321770336,-9.475916,-1.8951832,0.5814767,9.681054619888327
1484928.6881180224,-9.394557,-1.8473251,0.51926106,9.588531863626013
1484929.8440590112,-9.363449,-1.8090385,0.51208234,9.55034165844464
1484931.0,-9.334735,-1.7563945,0.45943835,9.509641568287734
1484932.9084130782,-9.231839,-1.6367491,0.39004403,9.383918865996788
1484934.064354067,-9.162445,-1.4740313,0.27997026,9.284478983652726
1484935.2202950558,-9.085872,-1.3113136,0.27518442,9.184135224556512
1484936.3762360446,-9.0571575,-1.2012398,0.20100428,9.138680526065489
1484937.5321770336,-9.126552,-1.040915,0.13639577,9.186732784401803
1484938.6881180224,-9.155267,-0.96434194,0.069394335,9.20617644802999
1484939.8440590112,-9.071514,-0.96434194,-0.019143265,9.122646989445213
1484941.0,-9.045193,-0.93802,-0.016750356,9.093716429605397
1484941.9084130782,-9.033228,-0.99784267,0.06221561,9.08838648364958
1484943.064354067,-8.98537,-1.0050215,0.043072347,9.041504160229001
1484944.2202950558,-8.932726,-0.8877689,0.0,8.976732557611552
1484945.3762360446,-8.834617,-0.75376606,-0.052643977,8.866870485025215
1484946.5321770336,-8.650363,-0.7130866,0.031107806,8.679760378401163
1484947.6881180224,-8.528324,-0.6556568,0.05025107,8.553637896146784
1484948.8440590112,-8.44218,-0.6006199,0.028714897,8.463567330740965
1484950.0,-8.320142,-0.54079723,0.040679436,8.337798232186538
1484950.9084130782,-8.31057,-0.6006199,0.047858164,8.332383116074144
1484952.064354067,-8.356035,-0.57908374,0.028714897,8.376125801614199
1484953.2202950558,-8.413465,-0.6939433,0.033500712,8.442101214007351
1484954.3762360446,-8.468502,-0.79205257,0.06460852,8.505706770075266
1484955.5321770336,-8.580969,-0.8829831,0.110073775,8.626981185199684
1484956.6881180224,-8.674292,-0.96194905,0.14357449,8.728648309459984
1484957.8440590112,-8.698221,-1.0648441,0.19382556,8.76530147056307
1484959.0,-8.793938,-1.1055236,0.24407662,8.866515740381427
1484959.9084130782,-8.851367,-1.1581675,0.46661708,8.9390033687259
1484961.064354067,-8.925548,-1.2586696,0.677193,9.039261398007978
1484962.2202950558,-9.00212,-1.2347406,0.82076746,9.123398931707591
1484963.3762360446,-9.05955,-1.2897775,0.7944455,9.185320672381367
1484964.5321770336,-9.090658,-1.3424214,0.83751786,9.227328662942538
1484965.6881180224,-9.107409,-1.4596739,0.7609448,9.254976152117802
1484966.8440590112,-9.179195,-1.5697477,0.6676214,9.336350840848809
1484968.0,-9.274912,-1.6534995,0.6006199,9.440275285632314
1484969.9084130782,-9.289269,-1.691786,0.58626246,9.460251693066219
1484971.064354067,-9.258162,-1.7348584,0.5814767,9.437235423519827
1484972.2202950558,-9.243804,-1.7492158,0.5623334,9.424642548030201
1484973.3762360446,-9.231839,-1.6367491,0.6460852,9.398043680677956
1484974.5321770336,-9.215089,-1.6152129,0.6101916,9.375452617285097
1484975.6881180224,-9.219875,-1.5529974,0.5360114,9.365105667367652
1484976.8440590112,-9.272519,-1.4764243,0.60301286,9.408669503618292
1484978.0,-9.2485895,-1.5003533,0.6460852,9.39174604905766
1484978.9084130782,-9.334735,-1.4883888,0.63651353,9.474055531506215
1484980.064354067,-9.425665,-1.5171037,0.57908374,9.564523109215173
1484981.2202950558,-9.492666,-1.6247846,0.53840435,9.645750983104016
1484982.3762360446,-9.514202,-1.7683591,0.39722276,9.68529398234348
1484983.5321770336,-9.526167,-1.9334698,0.42593765,9.729726926337067
1484984.6881180224,-9.4998455,-2.0555081,0.5623334,9.735933284785357
1484985.8440590112,-9.588383,-2.108152,0.677193,9.840730855431522
1484987.0,-9.571632,-2.0770442,0.7776951,9.825225769453933
1484988.9084130782,-9.480701,-1.9765421,0.77530223,9.715528996010272
1484990.064354067,-9.416093,-1.849718,0.6556568,9.618427621163411
1484991.2202950558,-9.33952,-1.6295704,0.60301286,9.499776735707083
1484992.3762360446,-9.19116,-1.5003533,0.5049036,9.326489683461503
1484993.5321770336,-9.078693,-1.380708,0.49533197,9.196432728510391
1484994.6881180224,-8.987762,-1.2754201,0.4785816,9.090412672040063
1484995.8440590112,-9.00212,-1.1892753,0.46183127,9.09207503024144
1484997.0,-9.052371,-1.1892753,0.42593765,9.140088585047666
1484997.9084130782,-9.071514,-1.251491,0.43790218,9.16789803032984
1484999.064354067,-9.11698,-1.3759222,0.42593765,9.23005466411442
1485000.2202950558,-9.219875,-1.4620669,0.4115802,9.344149661511883
1485001.3762360446,-9.291662,-1.5553902,0.48576033,9.433460896972106
1485002.5321770336,-9.392164,-1.6534995,0.5910483,9.554901532319898
1485003.6881180224,-9.392164,-1.7540016,0.6867646,9.57919160636803
1485004.8440590112,-9.485488,-1.7396442,0.77290934,9.674617997037242
1485006.0,-9.495059,-1.7324655,0.78487384,9.683677455744155
1485006.9084130782,-9.411307,-1.6989647,0.78248096,9.595387274772062
1485008.064354067,-9.4495945,-1.6774286,0.7944455,9.630147796113954
1485009.2202950558,-9.411307,-1.720501,0.885376,9.608158710212171
1485010.3762360446,-9.435237,-1.797074,1.0074143,9.657538805487116
1485011.5321770336,-9.377807,-1.9167194,1.0528796,9.62941497909824
1485012.6881180224,-9.344306,-1.9645776,1.0863802,9.610194675812233
1485013.8440590112,-9.334735,-2.0244002,1.0385221,9.608017581279368
1485015.0,-9.334735,-2.1153307,0.9954498,9.623035996758379
1485015.9084130782,-9.344306,-2.1799393,0.9164838,9.638886477647867
1485017.064354067,-9.296448,-2.2612982,0.83033913,9.603482599392597
1485018.2202950558,-9.291662,-2.266084,0.8351249,9.600393378185085
1485019.3762360446,-9.236626,-2.2421548,0.8446966,9.542328350936714
1485020.5321770336,-9.203125,-2.2182257,0.8877689,9.508215849546787
1485021.6881180224,-9.140909,-2.2277975,0.8542682,9.447172762515699
1485022.8440590112,-9.040407,-2.215833,0.8351249,9.345389676634037
1485024.0,-8.98537,-2.187118,0.8231604,9.284285229728358
1485024.9084130782,-8.947083,-2.2014754,0.8040171,9.248958408533717
1485026.064354067,-8.932726,-2.1942968,0.81358874,9.234200500066102
1485027.2202950558,-9.021263,-2.1249025,0.80162424,9.302741433138449
1485028.3762360446,-9.016478,-2.2038684,0.75855184,9.312857367262206
1485029.5321770336,-8.896832,-2.4144442,0.71787244,9.246539962129033
1485030.6881180224,-8.798723,-2.5651975,0.70112205,9.191808134079576
1485031.8440590112,-8.88726,-2.4694812,0.67001426,9.248278045850308
1485033.0,-8.92794,-2.368979,0.59583414,9.256089480359972
1485033.9084130782,-8.908797,-2.28762,0.63651353,9.219816631879512
1485035.064354067,-8.975799,-2.1679747,0.6389065,9.255986360403917
1485036.2202950558,-8.994942,-1.9717562,0.63651353,9.230490429520822
1485037.3762360446,-8.89444,-1.8377534,0.6197632,9.103433797028778
1485038.5321770336,-8.813081,-1.6678569,0.5886554,8.988807403175784
1485039.6881180224,-8.856153,-1.4381378,0.5264398,8.987592845374222
1485040.8440590112,-8.923154,-1.2371335,0.5240469,9.023735465866555
1485042.0,-8.904011,-1.1485959,0.5838696,8.996754311384857
1485042.9084130782,-8.784366,-1.1294526,0.53840435,8.873028143858312
1485044.064354067,-8.815474,-1.1031306,0.49054617,8.897758959998525
1485045.2202950558,-8.808294,-1.1557746,0.4977249,8.897729384091267
1485046.3762360446,-8.805902,-1.1103094,0.5934412,8.895440936524158
1485047.5321770336,-8.772401,-1.0959519,1.0313433,8.900550481535932
1485048.6881180224,-8.695828,-1.2299547,1.3208853,8.881157083702112
1485049.8440590112,-8.5043955,-1.6606783,1.9454343,8.880726876338874
1485051.0,-8.863332,-1.8856115,0.911698,9.107435320350085
1485052.9084130782,-9.643419,-1.9238981,-0.5001178,9.84616837773057
1485054.064354067,-10.057393,-1.8521109,-1.1342385,10.289215991378063
1485055.2202950558,-10.181824,-1.9741492,-0.7609448,10.399319305583596
1485056.3762360446,-10.246432,-2.3785505,-0.13639577,10.51976592029253
1485057.5321770336,-10.088501,-2.782952,0.21536173,10.467523820658524
1485058.6881180224,-9.574025,-2.9073834,0.42593765,10.014801836127768
1485059.8440590112,-8.994942,-2.811667,0.42115182,9.433547676126002
1485061.0,-8.525931,-2.629806,0.33022133,8.92840552065059
1485061.9084130782,-8.322535,-2.3546216,0.3804724,8.65757419561469
1485063.064354067,-8.31057,-2.1201165,0.5264398,8.592881156020738
1485064.2202950558,-8.559432,-1.9885067,0.598227,8.807718808073853
1485065.3762360446,-8.92794,-1.8090385,0.6173703,9.130272669827793
1485066.5321770336,-9.217482,-1.7731448,0.60301286,9.405830181935906
1485067.6881180224,-9.432844,-1.7396442,0.52165395,9.606093415873085
1485068.8440590112,-9.552489,-1.7372513,0.39243692,9.717103216013081
1485070.0,-9.621883,-1.746823,0.3278284,9.784656075655628
1485071.9084130782,-9.681706,-1.7635733,0.2656128,9.844601160759776
1485073.064354067,-9.619491,-1.7276796,0.28475606,9.777554393254167
1485074.2202950558,-9.552489,-1.7994668,0.27757734,9.72446276352091
1485075.3762360446,-9.456773,-1.7540016,0.27518442,9.621995824741472
1485076.5321770336,-9.4137,-1.7587874,0.33979294,9.582616555538085
1485077.6881180224,-9.480701,-1.6534995,0.34936458,9.630150967542503
1485078.8440590112,-9.547704,-1.639142,0.43790218,9.697277787452968
1485080.0,-9.667349,-1.6870002,0.5814767,9.83065214089299
1485080.9084130782,-9.715207,-1.7085364,0.6197632,9.883746764615543
1485082.064354067,-9.863567,-1.8186102,0.6221561,10.04909822998065
1485083.2202950558,-9.95689,-1.8616825,0.53840435,10.143736956713989
1485084.3762360446,-9.987998,-1.899969,0.52165395,10.180476859779978
1485085.5321770336,-10.054999,-2.000471,0.56711924,10.26774139449471
1485086.6881180224,-10.088501,-2.1009734,0.57908374,10.321205338158958
1485087.8440590112,-10.050214,-2.1536174,0.5623334,10.293740243669175
1485089.0,-10.023892,-2.1536174,0.53840435,10.266759857781114
1485089.9084130782,-9.976034,-2.1775463,0.54797596,10.225616847434566
1485091.064354067,-9.911426,-2.1799393,0.59583414,10.165801445412459
1485092.2202950558,-9.894675,-2.1799393,0.6676214,10.1539375141394
1485093.3762360446,-9.853995,-2.1990826,0.7776951,10.126301961239935
1485094.5321770336,-9.832459,-2.1990826,0.7418015,10.102647362632531
1485095.6881180224,-9.875532,-2.1679747,0.6101916,10.129095733162693
1485096.8440590112,-9.813316,-2.1584032,0.5527618,10.063072140115338
1485098.0,-9.818102,-2.2325833,0.5599405,10.084299104914686
1485098.9084130782,-9.810924,-2.2541194,0.5886554,10.083739345261833
1485100.064354067,-9.834852,-2.2756555,0.55754757,10.110083140577883
1485101.2202950558,-9.889889,-2.3976939,0.5695121,10.192310067029194
1485102.3762360446,-9.875532,-2.421623,0.6532639,10.189069828016502
1485103.5321770336,-9.870746,-2.4288018,0.67001426,10.187228469451473
1485104.6881180224,-9.875532,-2.4096584,0.7202653,10.190749137825867
1485105.8440590112,-9.887496,-2.3091564,0.8255533,10.187066245039238
1485107.0,-9.868353,-2.2589052,0.93084127,10.16629279064553
1485108.9084130782,-9.885103,-2.160796,0.96194905,10.164135312412016
1485110.064354067,-9.8922825,-2.0722585,0.8805902,10.145291885942195
1485111.2202950558,-9.959284,-1.9406484,0.72744405,10.172641193463916
1485112.3762360446,-10.026285,-1.8281817,0.6293348,10.21100883947962
1485113.5321770336,-10.074143,-1.6965718,0.5144752,10.228949007029964
1485114.6881180224,-10.0837145,-1.6080343,0.5336185,10.225058490347573
1485115.8440590112,-10.11243,-1.5482116,0.58626246,10.247043638790645
1485117.0,-10.131573,-1.4764243,0.72505116,10.264224245045352
1485117.9084130782,-10.203361,-1.4931747,0.83991075,10.346187532081885
1485119.064354067,-10.193789,-1.5769265,0.9739136,10.3609140071322
1485120.2202950558,-10.222504,-1.7300725,1.0122001,10.41716314203211
1485121.3762360446,-10.224896,-1.849718,0.99066395,10.437977292184994
1485122.5321770336,-10.224896,-1.9765421,0.8901618,10.452157907057645
1485123.6881180224,-10.179431,-2.1177237,0.7896597,10.42732619587144
1485124.8440590112,-10.098072,-2.1751535,0.7944455,10.36018795766836
1485126.0,-10.002356,-2.2445478,0.75615895,10.278954068137766
1485126.9084130782,-9.913818,-2.2493336,0.8231604,10.199062801323516
1485128.064354067,-9.830067,-2.1775463,0.87580436,10.106382062346924
1485129.2202950558,-9.767851,-2.1009734,0.8231604,10.025098275320634
1485130.3762360446,-9.7415285,-2.0267932,0.7609448,9.979193613740817
1485131.5321770336,-9.755886,-1.9358627,0.7202653,9.972144109499792
1485132.6881180224,-9.818102,-1.8712541,0.6748001,10.017588230913208
1485133.8440590112,-9.904246,-1.8210031,0.6484781,10.091118122631665
1485135.0,-10.007142,-1.7803236,0.6819788,10.187126101729104
1485135.9084130782,-10.141145,-1.6702498,0.70830077,10.302147654067458
1485137.064354067,-10.227289,-1.6439278,0.677193,10.380680577899643
1485138.2202950558,-10.232075,-1.6582853,0.6006199,10.382967456661756
1485139.3762360446,-10.220111,-1.5769265,0.6101916,10.359039522438062
1485140.5321770336,-10.272755,-1.5697477,0.5838696,10.408386370686113
1485141.6881180224,-10.212932,-1.5769265,0.6173703,10.352382494399459
1485142.8440590112,-10.155502,-1.5817122,0.68915755,10.3010180314547
1485144.0,-10.098072,-1.5649619,0.66044265,10.239938884562477
1485144.9084130782,-10.054999,-1.5841051,0.650871,10.199805239144913
1485146.064354067,-10.054999,-1.6032485,0.6389065,10.202039607769395
1485147.2202950558,-10.019106,-1.5984626,0.650871,10.166671076683645
1485148.3762360446,-9.98082,-1.5960697,0.677193,10.130291048084802
1485149.5321770336,-10.01432,-1.5769265,0.69872916,10.161767793442072
1485150.6881180224,-10.016713,-1.5793194,0.7346228,10.167028068706468
1485151.8440590112,-10.050214,-1.5745336,0.66283554,10.194376315224588
1485153.0,-10.059786,-1.6199988,0.7418015,10.216357469431054
1485154.9084130782,-10.062179,-1.6511066,0.7202653,10.222151502251796
1485156.064354067,-10.0837145,-1.7492158,0.66044265,10.25559547400437
1485157.2202950558,-10.088501,-1.8210031,0.66044265,10.272783907546662
1485158.3762360446,-10.100465,-1.8784329,0.6532639,10.294399307345262
1485159.5321770336,-10.069357,-1.9454343,0.70112205,10.279505685491968
1485160.6881180224,-9.999963,-2.005257,0.6843717,10.221970468612149
1485161.8440590112,-9.985605,-2.031579,0.6819788,10.212968008023694
1485163.0,-9.906639,-2.0698655,0.7130866,10.14565581731959
1485163.9084130782,-9.858782,-2.0770442,0.7322299,10.101774881610243
1485165.064354067,-9.86596,-2.0961876,0.7418015,10.113428629371741
1485166.2202950558,-9.830067,-2.1201165,0.7106937,10.081180324410477
1485167.3762360446,-9.84921,-2.1272953,0.72983694,10.102721656884874
1485168.5321770336,-9.80853,-2.184725,0.7130866,10.074163815703244
1485169.6881180224,-9.760673,-2.1919038,0.78487384,10.03450081598979
1485170.8440590112,-9.710421,-2.239762,0.92366254,10.008094838763482
1485172.0,-9.662563,-2.2277975,1.0313433,9.969547353437374
1485172.9084130782,-9.595561,-2.2062612,1.067237,9.903604101614494
1485174.064354067,-9.617098,-2.2612982,1.0265576,9.932565831498174
1485175.2202950558,-9.6410265,-2.237369,0.9691278,9.944567396754678
1485176.3762360446,-9.624276,-2.290013,0.8518753,9.929579023860734
1485177.5321770336,-9.593168,-2.3091564,0.81119585,9.900460305609137
1485178.6881180224,-9.609919,-2.3043704,0.69633627,9.906843610750835
1485179.8440590112,-9.655384,-2.2828343,0.5838696,9.938746215620794
1485181.0,-9.619491,-2.1966896,0.5240469,9.881026133516132
1485181.9084130782,-9.60274,-2.1272953,0.48097453,9.847301015989652
1485183.064354067,-9.595561,-2.0555081,0.5288327,9.827490446623488
1485184.2202950558,-9.657777,-2.08183,0.6556568,9.901341251063679
1485185.3762360446,-9.708028,-2.0507221,0.8159817,9.955756873033176
1485186.5321770336,-9.784601,-2.029186,0.9451987,10.037400716035934
1485187.6881180224,-9.844424,-2.0196145,0.94280577,10.093582582033573
1485188.8440590112,-9.944926,-2.057901,0.90691215,10.1960286052509
1485190.0,-10.007142,-2.0866158,0.8542682,10.258003249292958
1485191.9084130782,-10.105251,-2.0914016,0.885376,10.357313796871251
1485193.064354067,-10.078929,-2.1009734,0.8518753,10.330759436812894
1485194.2202950558,-10.11243,-2.000471,0.87580436,10.345538072219155
1485195.3762360446,-10.122002,-1.9334698,0.8518753,10.340160612014985
1485196.5321770336,-10.122002,-1.8736471,0.86862564,10.330536696890816
1485197.6881180224,-10.105251,-1.7827165,0.84948236,10.296397242352512
1485198.8440590112,-10.189003,-1.7085364,0.9093051,10.371196388508896
1485200.0,-10.203361,-1.6606783,0.885376,10.375467159303618
1485200.9084130782,-10.24404,-1.6056414,0.885376,10.40684056226336
1485202.064354067,-10.256004,-1.5458187,0.832732,10.40522061683988
1485203.2202950558,-10.287112,-1.5386399,0.83991075,10.435398224810665
1485204.3762360446,-10.282326,-1.5051392,0.83751786,10.425598694917793
1485205.5321770336,-10.227289,-1.5051392,0.8231604,10.370172483860904
1485206.6881180224,-10.191396,-1.5218896,0.7513731,10.331759865521834
1485207.8440590112,-10.078929,-1.5601761,0.7489802,10.226432935781872
1485209.0,-9.954497,-1.5266753,0.7322299,10.097470407042206
1485209.9084130782,-9.794173,-1.4859959,0.72744405,9.932934280192647
1485211.064354067,-9.69367,-1.3878866,0.6484781,9.813969183237695
1485212.2202950558,-9.5500965,-1.3878866,0.6819788,9.674485384630092
1485213.3762360446,-9.423272,-1.3400285,0.63412064,9.539173997410376
1485214.5321770336,-9.408915,-1.2682413,0.63651353,9.51531749055825
1485215.6881180224,-9.404129,-1.2706342,0.6795859,9.513884091911642
1485216.8440590112,-9.399343,-1.2467052,0.6795859,9.505985466159457
1485218.0,-9.408915,-1.3113136,0.7154795,9.526758932065523
1485218.9084130782,-9.492666,-1.4261732,0.67001426,9.622556671309221
1485220.064354067,-9.564454,-1.483603,0.6795859,9.7026643338417
1485221.2202950558,-9.645813,-1.5984626,0.6556568,9.799320229176818
1485222.3762360446,-9.657777,-1.6798215,0.6484781,9.824203820145978
1485223.5321770336,-9.626669,-1.6941789,0.72744405,9.801641343501945
1485224.6881180224,-9.621883,-1.7133222,0.75376606,9.802258346927497
1485225.8440590112,-9.626669,-1.7061435,0.7226582,9.8033625125352
1485227.0,-9.581204,-1.6774286,0.7609448,9.756652796239138
1485228.9084130782,-9.574025,-1.6080343,0.7489802,9.736975934580178
1485230.064354067,-9.574025,-1.562569,0.78248096,9.732206997035592
1485231.2202950558,-9.554882,-1.5434257,0.7944455,9.7112860413961
1485232.3762360446,-9.5405245,-1.4596739,0.8183746,9.686175334742119
1485233.5321770336,-9.533346,-1.4859959,0.7896597,9.680724777222874
1485234.6881180224,-9.56924,-1.4620669,0.8614469,9.718543335253242
1485235.8440590112,-9.597955,-1.4453164,0.84948236,9.743269469643398
1485237.0,-9.626669,-1.4716384,0.8710185,9.77737944662361
1485237.9084130782,-9.73435,-1.4979604,0.89734054,9.889725745802846
1485239.064354067,-9.758279,-1.5697477,0.9404129,9.928368108908066
1485240.2202950558,-9.810924,-1.5960697,0.87580436,9.978411772322742
1485241.3762360446,-9.801352,-1.6415349,0.8997334,9.978509810933573
1485242.5321770336,-9.815709,-1.6630712,0.9140909,9.997475239399858
1485243.6881180224,-9.772636,-1.6534995,0.9021264,9.952502550945326
1485244.8440590112,-9.765458,-1.6439278,0.90451926,9.94408485749633
1485246.0,-9.748708,-1.6534995,0.9188767,9.93054392546386
1485246.9084130782,-9.739136,-1.718108,0.9284483,9.933009683471214
1485248.064354067,-9.736743,-1.8329676,0.9188767,9.950289888264646
1485249.2202950558,-9.755886,-1.926291,0.83751786,9.979446118272095
1485250.3762360446,-9.669742,-1.9454343,0.7896597,9.895058736762737
1485251.5321770336,-9.605133,-2.0124357,0.77290934,9.84407772430626
1485252.6881180224,-9.542917,-1.9908996,0.75376606,9.777479703859122
1485253.8440590112,-9.463951,-1.9502201,0.7776951,9.694046453231438
1485255.0,-9.428058,-1.8903974,0.7418015,9.644280659888171
1485255.9084130782,-9.351485,-1.8473251,0.7394086,9.560837139501382
1485257.064354067,-9.284483,-1.8210031,0.6819788,9.485924939147898
1485258.2202950558,-9.291662,-1.7851094,0.6748001,9.485618243803215
1485259.3762360446,-9.313198,-1.7348584,0.650871,9.495737133782482
1485260.5321770336,-9.349092,-1.7898953,0.6101916,9.538426505359082
1485261.6881180224,-9.4495945,-1.7922882,0.5910483,9.636206271101837
1485262.8440590112,-9.5500965,-1.7731448,0.5551547,9.729161442899969
1485264.0,-9.638634,-1.8281817,0.46183127,9.821344197008916
1485265.9084130782,-9.7415285,-1.9071478,0.47618872,9.937874317197432
1485267.064354067,-9.844424,-1.87604,0.48336744,10.033237466313063
1485268.2202950558,-9.976034,-1.7563945,0.5001178,10.14180919869148
1485269.3762360446,-9.913818,-1.7324655,0.60301286,10.082105363223478
1485270.5321770336,-9.901854,-1.7276796,0.62454903,10.070831690006845
1485271.6881180224,-9.832459,-1.691786,0.63172776,9.996923017570538
1485272.8440590112,-9.772636,-1.7133222,0.5886554,9.939134898443527
1485274.0,-9.753493,-1.7109293,0.571905,9.918920309170375
1485274.9084130782,-9.767851,-1.7324655,0.6006199,9.938465381092156
1485276.064354067,-9.782208,-1.7013576,0.6173703,9.94823386967073
1485277.2202950558,-9.803744,-1.74443,0.57908374,9.974556151547215
1485278.3762360446,-9.822887,-1.7898953,0.6006199,10.002678564464976
1485279.5321770336,-9.827674,-1.8712541,0.63651353,10.02446595240444
1485280.6881180224,-9.8922825,-1.8640754,0.6484781,10.087247097343806
1485281.8440590112,-9.971248,-1.8712541,0.70830077,10.170008287364046
1485283.0,-9.937747,-1.9095407,0.7705164,10.14883523581078
1485283.9084130782,-9.976034,-1.9573988,0.80880296,10.19837372621254
1485285.064354067,-9.964069,-2.0507221,0.80880296,10.205013199221948
1485286.2202950558,-9.973641,-2.1751535,0.7609448,10.236398025384236
1485287.3762360446,-10.035856,-2.1488314,0.69633627,10.286922097463336
1485288.5321770336,-10.01432,-2.1966896,0.7130866,10.277185546648836
1485289.6881180224,-9.964069,-2.1990826,0.7872668,10.234179221254921
1485290.8440590112,-10.066964,-2.029186,0.86862564,10.306108407267867
1485292.0,-10.081322,-1.9238981,0.9499845,10.30712897547653
1485292.9084130782,-10.124394,-1.8377534,1.0385221,10.342109048866
1485294.064354067,-10.169859,-1.8138243,1.0744157,10.386065653921026
1485295.2202950558,-10.181824,-1.7827165,1.0792016,10.392896332581733
1485296.3762360446,-10.181824,-1.7755378,1.0959519,10.393420275025852
1485297.5321770336,-10.215324,-1.6511066,1.1414171,10.410659461614907
1485298.6881180224,-10.177038,-1.6271775,1.1725249,10.372782833505687
1485299.8440590112,-10.110037,-1.5482116,1.1605604,10.293527468355624
1485301.0,-10.12918,-1.4955676,1.2108115,10.31033822952002
1485302.9084130782,-10.162681,-1.5673548,1.1940612,10.3519306569446
1485304.064354067,-10.1842165,-1.6176059,1.2467052,10.38697205263854
1485305.2202950558,-10.153109,-1.562569,1.2443122,10.347731978395597
1485306.3762360446,-10.107644,-1.5410328,1.2395264,10.299304589034582
1485307.5321770336,-9.810924,-1.7659662,1.4022441,10.066735065020001
1485308.6881180224,-9.779816,-1.8018597,1.3208853,10.031761427989412
1485309.8440590112,-9.944926,-1.8042527,1.5027462,10.218372037293795
1485311.0,-10.0932865,-1.8473251,1.6702498,10.395998114205883
1485311.9084130782,-10.253612,-1.7492158,1.7037506,10.540354883423708
1485313.064354067,-10.30147,-1.7683591,1.7851094,10.603489691484647
1485314.2202950558,-10.27754,-1.720501,1.7922882,10.57356369132282
1485315.3762360446,-10.14593,-1.8090385,1.6726427,10.440797357541499
1485316.5321770336,-10.062179,-1.6176059,1.4716384,10.297077966885091
1485317.6881180224,-9.99757,-1.5410328,1.3208853,10.201515866347114
1485318.8440590112,-9.875532,-1.5960697,1.2730271,10.084352669736244
1485320.0,-9.715207,-1.7276796,1.3615648,9.961123559001976
1485320.9084130782,-9.485488,-1.9693633,1.6080343,9.820318157550059
1485322.064354067,-9.33952,-2.2277975,2.0722585,9.82262545464442
1485323.2202950558,-9.131337,-2.2277975,2.8308103,9.816205176297068
1485324.3762360446,-9.172017,-2.1703677,3.4697168,10.043670966021066
1485325.5321770336,-9.538132,-1.7587874,3.256748,10.231114440926108
1485326.6881180224,-9.425665,-1.6271775,2.4335876,9.869813367820337
1485327.8440590112,-8.671899,-1.9191123,1.222776,8.965489692838215
1485329.0,-7.7195215,-2.4072654,-0.22971918,8.089419620507968
1485329.9084130782,-6.999256,-2.7757733,-0.8805902,7.58089315759462
1485331.064354067,-6.4943523,-2.9791706,-0.8159817,7.19151551449029
1485332.2202950558,-6.1354165,-2.603484,-0.25125536,6.66967719028867
1485333.3762360446,-6.0516644,-1.9502201,0.6532639,6.391615928050948
1485334.5321770336,-6.2359185,-1.3328499,1.2969562,6.507323856954616
1485335.6881180224,-6.7791085,-0.8805902,1.4046371,6.97887931818603
1485336.8440590112,-8.229211,-0.28236315,0.17707519,8.235957640366568
1485338.0,-9.581204,0.22014755,-2.4479449,9.891429081119826
1485338.9084130782,-9.016478,-0.36611494,-4.4651666,10.068198867698769
1485340.064354067,-8.815474,-1.3854938,-4.824103,10.144168012662421
1485341.2202950558,-9.578811,-1.7922882,-3.2495692,10.272566239804389
1485342.3762360446,-11.10788,-0.9284483,0.19621846,11.148341402388862
1485343.5321770336,-13.328498,0.54079723,4.170839,13.976309188906086
1485344.6881180224,-15.125572,1.6176059,5.8458743,16.29643591422061
1485345.8440590112,-16.477566,1.9119335,3.9004402,17.04051362918836
1485347.0,-17.001612,1.5721406,-1.1342385,17.111777629445594
1485348.9084130782,-17.31269,0.62454903,-5.2500405,18.101994966815514
1485350.064354067,-17.219366,-0.54079723,-5.83391,18.18882989568135
1485351.2202950558,-15.707048,-1.6989647,-3.2830698,16.136182486505977
1485352.3762360446,-12.890595,-2.6513422,1.0744157,13.20421993197373
1485353.5321770336,-9.674527,-2.940884,5.29072,11.412142195643419
1485354.6881180224,-5.9870563,-2.9289196,6.99447,9.661574599594719
1485355.8440590112,-3.905226,-3.0844586,4.536954,6.73413888810633
1485357.0,-2.5077677,-3.0246358,-1.5984626,4.241745306286516
1485357.9084130782,-1.1318455,-2.9097762,-7.418015,8.048280456729977
1485359.064354067,-0.98109233,-2.998314,-10.023892,10.508607892116103
1485360.2202950558,-1.1031306,-3.2184613,-8.095208,8.781103736064052
1485361.3762360446,-0.6101916,-3.204104,-2.5986981,4.170353467809433
1485362.5321770336,-0.75615895,-3.0007067,4.168446,5.191527627972906
1485363.6881180224,-1.6511066,-2.9719918,7.2026534,7.964741318107096
1485364.8440590112,-3.491253,-2.967206,3.1107805,5.538060515706311
1485366.0,-6.64032,-3.0078855,-4.481917,8.557383062502183
1485366.9084130782,-8.863332,-3.1418884,-10.521617,14.111503858730563
1485368.064354067,-9.937747,-2.969599,-11.127023,15.211442222857732
1485369.2202950558,-10.476151,-2.8475606,-7.111723,12.978248925575528
1485370.3762360446,-9.99757,-2.5699832,1.0026284,10.371185239000834
1485371.5321770336,-8.786758,-1.770752,9.186374,12.834802143544872
1485372.6881180224,-7.293584,-1.0169859,11.158131,13.369162849595924
1485373.8440590112,-6.932255,-1.1462029,4.8552103,8.540667862071414
1485375.0,-8.908797,-1.6223917,-4.7331724,10.21771695554147
1485375.9084130782,-10.327791,-2.3139422,-11.406993,15.560754632943443
1485377.064354067,-11.304098,-3.306999,-11.797037,16.67000167843345
1485378.2202950558,-11.612783,-3.95787,-7.2816195,14.266865334920956
1485379.3762360446,-11.033699,-4.1516957,1.9478272,11.948770715394089
1485380.5321770336,-9.138516,-3.2687125,11.191631,14.813830042567425
1485381.6881180224,-7.4036574,-2.1895108,13.127494,15.229550195587768
1485382.8440590112,-6.5924616,-1.9741492,6.408208,9.403347530672214
1485384.0,-7.6668777,-1.6439278,-4.084694,8.841280300499816
1485385.9084130782,-9.84921,-1.9406484,-11.517067,15.277954251764585
1485387.064354067,-11.036092,-2.6393776,-12.780522,17.091032249116193
1485388.2202950558,-11.227525,-2.5221252,-6.4153867,13.174810042677539
1485389.3762360446,-10.315826,-2.5915194,3.175389,11.100240275064921
1485390.5321770336,-8.633613,-2.000471,11.112665,14.213813037247782
1485391.6881180224,-6.84611,-1.2419193,11.0791645,13.082792962432476
1485392.8440590112,-5.7358007,-1.2179902,4.2593765,7.247426989364487
1485394.0,-6.9848986,-1.4213874,-4.7020645,8.539236567476099
1485394.9084130782,-11.012163,-1.4788172,-11.804215,16.210926130724605
1485396.064354067,-13.431393,-2.000471,-12.742235,18.621728033067043
1485397.2202950558,-14.209088,-3.0270288,-6.556568,15.938935632168084
1485398.3762360446,-12.703949,-3.4433947,4.118195,13.791548764102387
1485399.5321770336,-9.6410265,-2.4144442,12.988705,16.354980597531778
1485400.6881180224,-6.5661397,-0.81358874,12.849916,14.453250790214183
1485401.8440590112,-5.106466,0.13639577,5.90809,7.810257759083876
1485403.0,-5.9822702,-0.057429794,-2.7973096,6.604225611326364
1485404.9084130782,-10.023892,-0.6819788,-10.299076,14.387997510602004
1485406.064354067,-13.584539,-1.4596739,-12.847524,18.7544453574996
1485407.2202950558,-15.573046,-2.8714898,-8.760436,18.09724990985415
1485408.3762360446,-14.529737,-3.3692145,1.4788172,14.98838763667377
1485409.5321770336,-11.876003,-2.0244002,12.890595,17.64383979976564
1485410.6881180224,-8.155031,0.009571632,15.120787,17.179721235412092
1485411.8440590112,-6.094737,1.2323477,8.693435,10.688325970519859
1485413.0,-6.4991384,0.9093051,-0.46183127,6.578671889461457
1485413.9084130782,-10.447436,-0.28714898,-8.219639,13.296384425893079
1485415.064354067,-15.632869,-1.8975761,-11.617569,19.569243666943624
1485416.2202950558,-18.140636,-3.330928,-8.863332,20.46304986965296
1485417.3762360446,-16.63071,-4.544132,0.6748001,17.253550530614966
1485418.5321770336,-12.66327,-3.0677083,13.385928,18.680265247794875
1485419.6881180224,-8.198103,-0.2680057,15.90566,17.89610963001293
1485420.8440590112,-5.970306,1.5649619,8.707792,10.673298505961107
1485422.0,-6.295741,1.5290682,-0.34457877,6.487922535609296
1485422.9084130782,-8.961441,0.016750356,-6.1282377,10.85647284704422
1485424.064354067,-14.17798,-2.1560102,-9.353878,17.121872867819924
1485425.2202950558,-17.027933,-3.6850784,-8.956655,19.58958840444741
1485426.3762360446,-16.07077,-4.264162,-5.1710744,17.41243051401726
1485427.5321770336,-13.883653,-2.7494514,4.271341,14.783763308564296
1485428.6881180224,-10.339756,-0.09810923,13.704185,17.167552710703184
1485429.8440590112,-6.5493894,2.8403819,16.386635,17.874117529934306
1485431.0,-4.1851964,2.969599,8.513967,9.940926576756462
1485431.9084130782,-4.3359494,2.2828343,-1.746823,5.2022283911748675
1485433.064354067,-8.131102,0.4785816,-10.904482,13.61071591690116
1485434.2202950558,-14.546489,-1.1820966,-13.88126,20.141675049172363
1485435.3762360446,-19.506987,-2.677664,-13.546252,23.899652080366547
1485436.5321770336,-20.748905,-3.5534685,-6.5852833,22.056975160270188
1485437.6881180224,-14.8910675,-3.484074,11.655855,19.228666586845208
1485438.8440590112,-6.901147,0.3852582,28.04967,28.888721690396345
1485440.0,-2.1703677,3.0605295,19.834816,20.18656143396962
1485441.9084130782,-2.4072654,3.9124048,0.24407662,4.60015341282558
1485443.064354067,-5.6113696,3.15146,-14.417272,15.78850533905563
1485444.2202950558,-13.309355,-0.43311638,-16.731213,21.383638810221665
1485445.3762360446,-18.973368,-4.242626,-10.80398,22.24217958024123
1485446.5321770336,-18.403856,-6.1593456,-1.8257889,19.4928950901691
1485447.6881180224,-13.335677,-4.7044573,7.16676,15.853537410731155
1485448.8440590112,-8.700614,0.002392908,12.098543,14.90219555722759
1485450.0,-4.8049593,5.3457565,11.730036,13.757125099134802
1485450.9084130782,-2.6513422,8.798723,8.497216,12.515982647914061
1485452.064354067,-2.553233,7.6668777,0.2584341,8.08497375401362
1485453.2202950558,-7.7171288,3.072494,-8.368,11.790577606539276
1485454.3762360446,-15.013105,-3.0677083,-12.526874,19.79208751412518
1485455.5321770336,-19.375378,-7.317513,-10.418722,23.18406860888177
1485456.6881180224,-17.422764,-7.0136137,-1.2538838,18.82327567445226
1485457.8440590112,-9.978427,-2.2947989,10.86141,14.926665219461118
1485459.0,-5.465402,3.2711053,16.015734,17.235848817625666
1485459.9084130782,-3.2160685,6.322063,8.64797,11.184764740197322
1485461.064354067,-5.0466433,5.831517,-1.639142,7.884287261058408
1485462.2202950558,-8.145459,4.012907,-7.5950904,11.83796110381776
1485463.3762360446,-14.058335,0.1172525,-8.432608,16.3938832740338
1485464.5321770336,-18.626396,-3.0796728,-6.893968,20.09860212275719
1485465.6881180224,-18.355997,-3.9913707,-3.720972,19.149916411139017
1485466.8440590112,-12.419193,-1.2754201,3.8214743,13.056290324142363
1485468.0,-6.219168,3.4051082,10.026285,12.280032710345532
1485468.9084130782,-3.0581365,6.870039,10.842267,13.194862197591995
1485470.064354067,-2.3282995,4.922212,4.874354,7.3081103201826565
1485471.2202950558,-3.986585,0.9547703,-1.2825987,4.295288781121565
1485472.3762360446,-8.509181,-2.371372,-5.0203214,10.160373684685172
1485473.5321770336,-15.762086,-4.97007,-7.9492407,18.33944869898854
1485474.6881180224,-20.775229,-5.7860518,-8.588147,23.21303091645581
1485475.8440590112,-19.655348,-3.3381069,-4.0751224,20.34901189866263
1485477.0,-12.560374,1.9669704,6.1330233,14.11545048422809
1485477.9084130782,-5.417544,7.2457256,12.423979,15.368980989475924
1485479.064354067,-3.7161863,7.910954,10.612547,13.748432188203594
1485480.2202950558,-4.711636,3.9937637,1.7516087,6.420108669317785
1485481.3762360446,-8.018635,-0.13160995,-3.7377224,8.84796005764186
1485482.5321770336,-12.969562,-3.543897,-7.080615,15.195520826765959
1485483.6881180224,-18.609646,-5.616155,-9.45438,21.615860436580846
1485484.8440590112,-21.076735,-4.7092433,-9.533346,23.60699931534154
1485486.0,-16.470387,-0.8279462,-3.0030997,16.76239095857162
1485487.9084130782,-8.025814,3.4768956,9.143302,12.653160270821648
1485489.064354067,0.2680057,5.8674107,17.568731,18.524541676599398
1485490.2202950558,0.9858781,4.4220943,14.453165,15.146644913754898
1485491.3762360446,-0.83751786,1.2897775,0.22254045,1.55386177545219
1485492.5321770336,-7.63577,-2.9624202,-10.887732,13.624376133903969
1485493.6881180224,-17.257652,-7.8798466,-14.201909,23.698370286517942
1485494.8440590112,-23.515108,-10.236861,-10.629298,27.762125339350174
1485496.0,-22.294725,-6.561354,-0.7106937,23.25104760379972
1485496.9084130782,-13.180138,2.2062612,9.183981,16.215089675670328
1485498.064354067,-5.42233,8.183745,13.086814,16.359707990197165
1485499.2202950558,-1.8066456,8.743686,10.579046,13.843129251029602
1485500.3762360446,-3.306999,3.9147975,2.5939124,5.7437151209718795
1485501.5321770336,-6.1378093,-3.3165705,-5.173467,8.685453568163595
1485502.6881180224,-13.065278,-9.920997,-8.19571,18.338411411444365
1485503.8440590112,-18.248318,-13.0581,-7.805666,23.758019848941114
1485505.0,-19.026012,-10.46658,-3.644399,22.018630147939383
1485505.9084130782,-14.099014,-1.0193789,4.0990515,14.718136849262324
1485507.064354067,-5.673585,5.317042,8.877689,11.801434843387053
1485508.2202950558,-1.354386,8.092815,8.760436,12.003051902383701
1485509.3762360446,-3.306999,6.58289,1.8975761,7.607330556337893
1485510.5321770336,-9.0475855,0.2584341,-2.7566302,9.46174411107197
1485511.6881180224,-13.431393,-6.769537,-2.6154485,15.26661455500106
1485512.8440590112,-15.762086,-11.591247,-4.03205,19.976430844595463
1485514.0,-18.025776,-11.043271,-5.4534373,21.831683699766455
1485514.9084130782,-14.938925,-5.675978,-1.8808258,16.09116876121976
1485516.064354067,-9.337128,1.9741492,6.561354,11.581476186806269
1485517.2202950558,-2.4383733,7.348621,8.040172,11.162090339241027
1485518.3762360446,-1.2586696,7.011221,4.6446347,8.503769785762621
1485519.5321770336,-5.7621226,1.0552725,-0.30389932,5.865834271728401
1485520.6881180224,-10.416329,-5.053822,-2.9719918,11.952981297701099
1485521.8440590112,-15.022677,-9.451987,-3.8597608,18.163662514143855
1485523.0,-18.667076,-10.454616,-4.625491,21.889584031870342
1485524.9084130782,-19.11455,-7.528089,-3.2495692,20.798986650315676
1485526.064354067,-11.366313,-1.354386,1.4692456,11.540628894652334
1485527.2202950558,-5.1184306,4.4149156,8.054528,10.515000373985904
1485528.3762360446,-0.99784267,6.11388,7.1524024,9.462139226411672
1485529.5321770336,-2.1727605,4.3048415,-0.3326142,4.833547427772292
1485530.6881180224,-5.6257267,-0.18903974,-5.6640134,7.985335604830377
1485531.8440590112,-11.08395,-5.0897155,-4.812138,13.111667460871796
1485533.0,-16.776678,-8.468502,-5.8674107,19.68753308980489
1485533.9084130782,-20.662762,-8.193317,-7.5352674,23.47041609602684
1485535.064354067,-18.430178,-5.003571,-2.9193478,19.31915566066721
1485536.2202950558,-10.588618,0.60779864,4.893497,11.680520674427097
1485537.3762360446,-2.555626,6.4656377,8.502003,10.982702314619399
1485538.5321770336,-0.24407662,8.731722,7.7195215,11.657339090490456
1485539.6881180224,-1.588891,4.216304,1.1773108,4.657022090359207
1485540.8440590112,-7.2265825,-2.5508401,-5.3816504,9.364424214701854
1485542.0,-14.30959,-8.322535,-9.210303,18.943564504763458
1485542.9084130782,-19.66731,-10.24404,-8.662328,23.80712843955113
1485544.064354067,-21.342348,-7.867882,-7.367764,23.909900285838166
1485545.2202950558,-16.805393,-1.4213874,-2.3522286,17.028639270710556
1485546.3762360446,-6.8221807,5.259612,5.7812657,10.374425332903648
1485547.5321770336,0.16032484,9.619491,8.662328,12.945896551918915
1485548.6881180224,1.8688612,9.94014,5.936805,11.727944364315958
1485549.8440590112,-1.665464,4.7547083,2.471874,5.6117004931892875
1485551.0,-5.4055796,-4.1851964,-4.039229,7.940499394430436
1485551.9084130782,-13.220818,-10.837481,-9.913818,19.761700593613114
1485553.064354067,-19.786957,-11.765929,-11.031306,25.527445321036847
1485554.2202950558,-20.93316,-6.6355343,-6.8150024,22.992863256760394
1485555.3762360446,-15.0824995,1.8568966,0.026321989,15.196399211579589
1485556.5321770336,-5.527618,8.906404,8.882475,13.739612625207634
1485557.6881180224,2.2971919,10.064571,11.921468,15.770037391030202
1485558.8440590112,3.3428926,6.1043086,3.5702188,7.822018709964977
1485560.0,-2.6537352,-1.5147108,-4.8336744,5.7184847227715
1485561.9084130782,-9.384986,-10.344542,-7.970777,16.081691372293182
1485563.064354067,-16.40817,-13.919546,-9.310805,23.44510382453106
1485564.2202950558,-19.21266,-9.786994,-8.308177,23.10708464724542
1485565.3762360446,-15.058571,-0.8901618,-2.1919038,15.243273626773046
1485566.5321770336,-7.903775,8.408679,3.278284,11.996778224186775
1485567.6881180224,-2.6130557,13.043742,9.093051,16.113684927491523
1485568.8440590112,0.7705164,10.239254,9.844424,14.224932403739603
1485570.0,-1.6080343,1.0863802,0.7657306,2.086226162405431
1485570.9084130782,-7.0901866,-7.7960944,-7.3294773,12.836318452256714
1485572.064354067,-13.610861,-12.488587,-9.853995,20.93613048960851
1485573.2202950558,-18.262674,-12.26844,-10.52401,24.38841257941927
1485574.3762360446,-19.116943,-6.7719297,-5.029893,20.895367073072443
1485575.5321770336,-11.007378,1.2179902,4.16366,11.831396162658912
1485576.6881180224,-2.6609137,8.188532,9.485488,12.810425466471271
1485577.8440590112,2.5053747,11.445279,8.257926,14.334038356189685
1485579.0,1.2443122,7.1715455,2.835596,7.811528812265566
1485579.9084130782,-3.484074,-1.4979604,-5.5898333,6.754916233324662
1485581.064354067,-11.344777,-9.205518,-8.743686,17.02637870172777
1485582.2202950558,-16.594818,-11.533817,-7.7458434,21.64289742663714
1485583.3762360446,-19.734314,-9.880318,-6.750394,23.078813920714296
1485584.5321770336,-18.193281,-3.7329366,-1.433352,18.627527671714372
1485585.6881180224,-8.925548,3.5582542,5.075358,10.866730827635587
1485586.8440590112,-1.3639576,8.693435,6.951398,11.214193086808644
1485588.0,1.8473251,9.030835,4.790602,10.388380929900434
1485588.9084130782,1.3831009,3.984192,1.5697477,4.500095758325605
1485590.064354067,-3.5750046,-3.8932614,-4.065551,6.668346658081907
1485591.2202950558,-12.007613,-9.672134,-6.544604,16.75006828608591
1485592.3762360446,-17.293547,-10.849445,-6.506317,21.426837973759053
1485593.5321770336,-20.861372,-7.4778376,-6.3364205,23.049189175482464
1485594.6881180224,-17.209795,-0.18903974,-1.5434257,17.27989996663015
1485595.8440590112,-8.624041,6.432137,5.3242207,12.00390751458701
1485597.0,-3.5319324,8.095208,9.839638,13.222156216460226
1485597.9084130782,-0.7944455,4.4125223,9.061943,10.110405908553648
1485599.064354067,-2.8547394,-3.649185,-0.12921704,4.634952561738224
1485600.2202950558,-8.841795,-8.920761,-7.2696548,14.512242988329167
1485601.3762360446,-13.7329,-9.014085,-8.31057,18.409558509701558
1485602.5321770336,-16.147345,-6.745608,-6.152167,18.549639797973924
1485603.6881180224,-15.522795,-1.4883888,-2.94567,15.869764887385397
1485604.8440590112,-8.277069,4.4843097,2.7805593,9.815824709981916
1485606.0,-3.1682103,7.6955924,6.152167,10.349340930119794
1485607.9084130782,-1.5386399,6.2670264,7.599876,9.970012430059702
1485609.064354067,-2.916955,-0.6484781,3.8501892,4.8737159533564585
1485610.2202950558,-8.214853,-7.032757,-2.5077677,11.101008047462233
1485611.3762360446,-14.115765,-9.081086,-6.015771,17.830043331384868
1485612.5321770336,-17.496944,-8.001884,-5.001178,19.87926000323644
1485613.6881180224,-19.593132,-4.78103,-4.012907,20.563377446834288
1485614.8440590112,-14.591953,0.105287954,0.677193,14.608037796593885
1485616.0,-6.3292418,5.2500405,3.7329366,9.030893791542843
1485616.9084130782,-2.711165,7.815238,6.147381,10.306243438471167
1485618.064354067,-1.251491,5.9679127,5.9487696,8.51880692772095
1485619.2202950558,-3.984192,-1.040915,0.19143265,4.122370239264666
1485620.3762360446,-9.255769,-6.331635,-4.347914,12.027602325733172
1485621.5321770336,-13.986547,-6.3172774,-6.798252,16.78534244474219
1485622.6881180224,-17.738628,-5.472581,-6.812609,19.774218252836846
1485623.8440590112,-17.647697,-2.2206187,-2.4048727,17.948698268058436
1485625.0,-12.713521,2.658521,3.8573678,13.549193203632415
1485625.9084130782,-6.9418263,5.2141466,8.006671,11.810294562283545
1485627.064354067,-3.7927594,4.7834234,9.227054,11.063665252025295
1485628.2202950558,-4.7762446,0.3565433,2.084223,5.223372580769349
1485629.3762360446,-8.683864,-3.7831876,-4.2306614,10.374029991702344
1485630.5321770336,-11.581676,-4.1732316,-7.0207925,14.171895013874144
1485631.6881180224,-15.180609,-3.697043,-6.901147,17.080539993523008
1485632.8440590112,-17.274403,-2.9480627,-3.7353296,17.917833571896363
1485634.0,-14.702027,-1.0648441,1.6343563,14.83086684524487
1485634.9084130782,-10.997806,1.4405307,4.2617693,11.88232060995246
1485636.064354067,-4.8001738,4.1995535,5.778873,8.606584180712908
1485637.2202950558,-0.49054617,5.903304,3.7449012,7.008132323171354
1485638.3762360446,-0.71787244,4.0559793,1.1916683,4.287934498026401
1485639.5321770336,-3.4984317,1.2825987,-2.3378713,4.398832345085485
1485640.6881180224,-11.167702,-4.3359494,-5.963127,13.381962067585357
1485641.8440590112,-19.15523,-7.6453414,-4.0775156,21.023801153542557
1485643.0,-20.093248,-7.98992,-1.1629534,21.65478924871991
1485644.9084130782,-18.131065,-3.7377224,0.69155043,18.525234918103465
1485646.064354067,-10.55751,5.235683,5.2691836,12.908822164980737
1485647.2202950558,-4.1038375,9.928176,7.6429486,13.184264265237717
1485648.3762360446,-2.1392598,8.042564,6.4153867,10.507923424565337
1485649.5321770336,-2.995921,1.5314612,0.5264398,3.4055917119306125
1485650.6881180224,-8.073672,-3.9937637,-5.6879425,10.653028580564682
1485651.8440590112,-14.005692,-6.4656377,-6.8293595,16.87021133379086
1485653.0,-15.783622,-4.993999,-3.6515777,16.952780572815254
1485653.9084130782,-16.231096,-2.8044882,-2.1177237,16.607178721706376
1485655.064354067,-10.854231,2.4120514,3.5893621,11.6839994369445
1485656.2202950558,-4.4412374,6.125845,6.152167,9.751908808180723
1485657.3762360446,-2.7973096,5.7740874,7.7960944,10.096737799646096
1485658.5321770336,-2.6130557,1.6367491,4.8839254,5.775788692500657
1485659.6881180224,-8.17896,-3.2615337,-0.80162424,8.84169611443366
1485660.8440590112,-12.833166,-4.094266,-4.0176926,14.056849486652647
1485662.0,-16.192808,-3.6755068,-6.4417086,17.81044611594623
1485662.9084130782,-18.016205,-2.3450499,-7.130866,19.517483227749192
1485664.064354067,-15.532367,0.43311638,-1.5434257,15.614870390519858
1485665.2202950558,-10.808765,1.9741492,5.6065836,12.335333216126534
1485666.3762360446,-4.276127,2.1392598,11.301705,12.27152111675851
1485667.5321770336,1.691786,2.3976939,8.090423,8.606161759275862
1485668.6881180224,1.2538838,2.00765,0.4785816,2.4149375673629745
1485669.8440590112,-2.1799393,2.0961876,-6.5541754,7.218265233423015
1485671.0,-10.46658,-1.2323477,-9.56206,14.230283524712194
1485671.9084130782,-17.135614,-4.7283864,-6.2335258,18.8372967541515
1485673.064354067,-20.167429,-6.044486,1.1366314,21.084423976331507
1485674.2202950558,-19.547667,-5.941591,7.415622,21.734885286125945
1485675.3762360446,-12.957598,-0.9188767,11.68457,17.47205930634128
1485676.5321770336,-7.918133,2.8212388,5.7669086,10.19379484652641
1485677.6881180224,-4.656599,5.262005,-1.1605604,7.1217632162880955
1485678.8440590112,-2.5963054,6.43453,-3.984192,8.001110169459809
1485680.0,-5.3385777,2.0507221,-3.9985495,6.978128050868367
1485681.9084130782,-8.982977,-1.5553902,-2.6465564,9.493017182917452
1485683.064354067,-14.718778,-5.0633936,-4.2282686,16.129433837415093
1485684.2202950558,-17.195438,-5.709479,-3.4481807,18.44373033318199
1485685.3762360446,-12.613019,-3.1179593,2.5963054,13.24955547257668
1485686.5321770336,-9.26534,-0.55754757,5.5635114,10.821739402995384
1485687.6881180224,-6.1378093,1.7635733,6.8867893,9.392058381964727
1485688.8440590112,-6.326849,1.9956853,2.7949166,7.198842746330319
1485690.0,-9.004513,-0.040679436,-1.5290682,9.13350747215622
1485690.9084130782,-12.321084,0.2943277,-3.7807949,12.89147585833016
1485692.064354067,-17.1069,-2.8020954,-6.307706,18.446813308079452
1485693.2202950558,-17.80563,-3.275891,-3.6037195,18.459651019872
1485694.3762360446,-16.233488,-2.3594074,-0.18903974,16.405141631470848
1485695.5321770336,-11.313669,-1.7731448,3.720972,12.041128740616973
1485696.6881180224,-5.072965,-0.24407662,5.0418572,7.156456617128861
1485697.8440590112,-1.4764243,0.6843717,2.3809435,2.883935728753959
1485699.0,-0.18425392,2.7805593,0.21775463,2.795152340524268
1485699.9084130782,-3.8980472,2.8427749,-1.5577831,5.069795784066994
1485701.064354067,-9.633848,-0.8183746,-1.9669704,9.86659702367059
1485702.2202950558,-13.63479,-3.4146798,1.1246668,14.1007947255341
1485703.3762360446,-18.202852,-6.812609,1.8927903,19.52788051583067
1485704.5321770336,-17.391657,-6.324456,2.1990826,18.636105848143483
1485705.6881180224,-16.274168,-2.5388756,-2.445552,16.651581245911853
1485706.8440590112,-12.258868,3.0007067,-3.0054924,12.97370686840529
1485708.0,-5.678371,6.6044264,1.7492158,8.883811186738923
1485708.9084130782,-3.852582,5.5132604,5.77648,8.866010912204663
1485710.064354067,-4.582419,4.0966587,3.3261423,6.988876805016381
1485711.2202950558,-10.911661,-1.2802058,-3.7114005,11.596454904007297
1485712.3762360446,-15.0322485,-4.50106,-6.432137,16.958785996530565
1485713.5321770336,-14.869531,-4.943748,-4.1277666,16.204383775742308
1485714.6881180224,-14.378984,-4.6996713,0.6197632,15.140217885630774
1485715.8440590112,-8.346463,-0.99305683,7.4634805,11.240691600246798
1485717.0,-6.4225655,-0.5072965,9.0475855,11.107002328284295
1485718.9084130782,-5.932019,0.30389932,4.0679436,7.199261722276697
1485720.064354067,-7.7434506,1.7827165,-2.4862316,8.325890515905861
1485721.2202950558,-11.966933,0.45225963,-5.6616206,13.246356933804897
1485722.3762360446,-12.323477,1.6056414,-3.6539707,12.953674056088545
1485723.5321770336,-16.159307,-0.8040171,-1.4668527,16.24565489787465
1485724.6881180224,-14.417272,-0.004785816,-0.22732627,14.419064881574357
1485725.8440590112,-10.141145,2.4383733,0.6460852,10.450163268908144
1485727.0,-6.45128,3.017457,2.187118,7.450338618557749
1485727.9084130782,-4.3622713,3.5582542,3.4577522,6.606559931100766
1485729.064354067,-5.970306,-0.3326142,2.711165,6.56548563298273
1485730.2202950558,-7.0638647,-1.7252867,0.7346228,7.30852032598821
1485731.3762360446,-12.995884,-3.1347096,-1.3998512,13.441688457925574
1485732.5321770336,-14.924568,-3.5845764,-2.268477,15.515730915866966
1485733.6881180224,-15.372042,-3.5630403,0.028714897,15.779599360392451
1485734.8440590112,-13.419429,-2.2086542,3.75208,14.108059129009158
1485736.0,-9.669742,1.5194967,3.8645465,10.523663821052871
1485737.9084130782,-9.356271,4.2043395,0.8446966,10.292219877303088
1485739.064354067,-6.951398,7.3557997,-1.0792016,10.178133398338158
1485740.2202950558,-5.3266134,6.951398,0.8925547,8.802919876947401
1485741.3762360446,-6.326849,2.4383733,2.2971919,7.159034379326552
1485742.5321770336,-10.837481,-0.27518442,-0.009571632,10.840978392493497
1485743.6881180224,-17.063828,-4.319199,-4.9868207,18.294755716027844
1485744.8440590112,-16.343563,-5.8363028,-4.635063,17.962691639123182
1485746.0,-13.663506,-5.915269,-0.004785816,14.888983392375444
1485746.9084130782,-7.994706,-1.5697477,6.4680305,10.40263670503885
1485748.064354067,-3.3117847,3.491253,10.174645,11.255228397735342
1485749.2202950558,-1.5482116,4.036836,8.411072,9.457226667393279
1485750.3762360446,-3.0868514,3.1801748,3.1466742,5.4354136774658315
1485751.5321770336,-11.428529,-1.4548881,-3.854975,12.148613366882149
1485752.6881180224,-16.312454,-2.9648132,-8.889653,18.81255440585938
1485753.8440590112,-20.346897,-3.8382246,-9.978427,22.98471646557736
1485755.0,-18.51393,-2.421623,-3.7114005,19.036920855811456
1485755.9084130782,-14.010477,0.19621846,6.1545596,15.30393973202737
1485757.064354067,-8.616862,1.170132,12.785308,15.462329070335167
1485758.2202950558,-3.0389934,2.1057591,10.047821,10.706465762356753
1485759.3762360446,-1.4955676,1.6271775,0.89734054,2.3852985363269523
1485760.5321770336,-3.0868514,3.1299238,-7.238547,8.468862806227138
1485761.6881180224,-9.212696,2.132081,-7.997099,12.384390554031231
1485762.8440590112,-13.498395,-1.8138243,-2.6250203,13.870376986322599
1485764.0,-16.027699,-5.494117,4.120588,17.437078376552478
1485764.9084130782,-17.896559,-8.207675,8.509181,21.448983990783038
1485766.064354067,-13.720935,-6.424958,5.6352987,16.16479922591712
1485767.2202950558,-11.395028,-1.6247846,-1.715715,11.637451012932607
1485768.3762360446,-7.803273,5.6448703,-5.7645154,11.224315926290931
1485769.5321770336,-5.2021823,8.959048,-3.9530842,11.088467722865362
1485770.6881180224,-5.1184306,6.3938503,-0.5623334,8.209498907886035
1485771.8440590112,-9.447201,2.1727605,-0.12921704,9.694699168524396
1485773.0,-16.377064,-4.900676,-2.1799393,17.233020219008523
1485773.9084130782,-18.573753,-8.923154,-3.5103962,20.902867250540044
1485775.064354067,-18.379927,-11.25624,0.002392908,21.552834179961984
1485776.2202950558,-9.95689,-6.8652534,8.217246,14.62171311929035
1485777.3762360446,-4.4220943,-0.859054,10.538367,11.460805852979863
1485778.5321770336,0.3804724,3.6085055,7.415622,8.255756830089899
1485779.6881180224,-1.7731448,5.723836,-2.2254045,6.3920862185426826
1485780.8440590112,-8.44218,3.2232473,-10.552725,13.893154113986583
1485782.0,-13.306962,1.170132,-13.778365,19.190825637269832
1485782.9084130782,-18.494787,-2.5436614,-11.878396,22.12744113145564
1485784.064354067,-18.432571,-3.8717253,-2.94567,19.063758869058354
1485785.2202950558,-16.633104,-3.6635423,7.5328746,18.62326208262211
1485786.3762360446,-8.85376,-1.5027462,13.168173,15.938886173040554
1485787.5321770336,-2.4862316,1.8592896,9.530953,10.023840106152718
1485788.6881180224,-0.6843717,2.3474429,1.5482116,2.894099506046027
1485789.8440590112,-1.9932925,4.3168063,-5.0873227,6.963396001679872
1485791.0,-9.856388,-1.0241647,-8.791544,13.247208900111982
1485791.9084130782,-14.89346,-3.206497,-10.212932,18.34123097884199
1485793.064354067,-18.863295,-4.513025,-9.904246,21.778094079514076
1485794.2202950558,-17.329441,-2.1416528,-5.0131426,18.166667300750667
1485795.3762360446,-14.790565,0.8446966,4.1469097,15.384121210690935
1485796.5321770336,-8.396714,1.2802058,13.450537,15.907881017801165
1485797.6881180224,-3.0916374,1.8975761,13.44575,13.92649309520778
1485798.8440590112,-3.936334,-0.30868515,5.161503,6.498547922451254
1485800.0,-5.910483,0.23211208,-5.128002,7.828415537193649
1485801.9084130782,-13.055707,-1.8210031,-11.787465,17.683661065692352
1485803.064354067,-15.585011,-1.6295704,-11.268204,19.300789852860767
1485804.2202950558,-16.07077,-1.430959,-7.597483,17.83364909343766
1485805.3762360446,-11.751572,0.5599405,-1.304135,11.836965233240708
1485806.5321770336,-8.241176,2.5484471,3.6802926,9.3784923151906
1485807.6881180224,-4.656599,1.6678569,5.309863,7.25674210403316
1485808.8440590112,-2.8786685,2.2708697,4.1564813,5.542555216190456
1485810.0,-5.7023,-0.81358874,1.9621847,6.085090034236871
1485810.9084130782,-8.770008,-2.6250203,-1.7013576,9.311197000308493
1485812.064354067,-14.378984,-5.436687,-3.9435124,15.870224839528229
1485813.2202950558,-14.015263,-4.9030685,-1.225169,14.898614591747188
1485814.3762360446,-13.833402,-2.9480627,0.75615895,14.164245865361147
1485815.5321770336,-10.358899,-0.94280577,3.0294216,10.833885103816305
1485816.6881180224,-8.569004,1.3089207,0.8446966,8.709455510935
1485817.8440590112,-7.575947,3.4146798,-1.7563945,8.493522986544942
1485819.0,-6.092344,6.905933,-2.2445478,9.478742577014625
1485820.9084130782,-6.5254602,4.3885937,-0.78487384,7.903000217017591
1485822.064354067,-8.243568,2.2206187,-1.0768087,8.605061171067256
1485823.2202950558,-14.733135,-3.3022132,-2.1440456,15.2501413266028
1485824.3762360446,-15.077714,-6.5302463,-1.6870002,16.517492118335028
1485825.5321770336,-12.936061,-7.3318706,-1.4620669,14.941072261084242
1485826.6881180224,-7.9444547,-3.720972,0.34936458,8.779638302054057
1485827.8440590112,-3.7425082,3.6108983,3.1083877,6.058632539898869
1485829.0,-1.746823,5.314649,7.7147355,9.529639469648904
1485829.9084130782,-2.9073834,3.306999,7.312727,8.536105481841561
1485831.064354067,-10.416329,-3.15146,0.23211208,10.88510385736043
1485832.2202950558,-16.075556,-5.2715764,-9.638634,19.470908654609033
1485833.3762360446,-21.13895,-6.9585767,-14.398128,26.506283909606545
1485834.5321770336,-19.803707,-4.993999,-9.152873,22.38083825749114
1485835.6881180224,-15.015498,-2.290013,2.4934103,15.39241484148342
1485836.8440590112,-5.673585,1.433352,12.68002,13.965205759620194
1485838.0,1.7276796,5.534796,12.230153,13.534972699096262
1485838.9084130782,4.0679436,7.0925794,2.112938,8.444960311921504
1485840.064354067,0.42354473,7.1524024,-8.851367,11.387842113347265
1485841.2202950558,-7.0686507,1.2730271,-12.4168005,14.344453819255202
1485842.3762360446,-12.7087345,-5.285934,-5.9200544,14.983326564645303
1485843.5321770336,-18.994904,-10.725014,0.62454903,21.822519670292106
1485844.6881180224,-18.01142,-10.172253,5.4199367,21.383678246373236
1485845.8440590112,-16.221523,-5.43908,2.6968074,17.320339772609074
1485847.0,-11.708499,3.567826,-2.2230117,12.440261742327365
1485847.9084130782,-6.812609,9.200731,-2.7877378,11.782893293363513
1485849.064354067,-2.7901309,9.229446,-0.7059079,9.667771711688955
1485850.2202950558,-3.854975,6.8580747,0.3565433,7.875350402755422
1485851.3762360446,-10.648441,-0.9667349,0.48576033,10.703262829416117
1485852.5321770336,-14.670919,-6.767144,-2.0387578,16.28455205365987
1485853.6881180224,-18.099957,-11.440494,-2.6872358,21.580421279731464
1485854.8440590112,-12.780522,-8.576182,0.052643977,15.391407072711786
1485856.0,-6.7408223,-2.9791706,2.1368668,7.6733527525472125
1485857.9084130782,0.2680057,3.8597608,4.23784,5.738368091543896
1485859.064354067,-0.10050214,6.4369226,2.4120514,6.874741100199868
1485860.2202950558,-3.649185,5.3313994,-3.0030997,7.124533566114026
1485861.3762360446,-10.648441,-0.31347096,-6.1737027,12.312683087013633
1485862.5321770336,-16.64746,-5.0873227,-6.3794928,18.539598299067517
1485863.6881180224,-20.244003,-5.8506603,-4.065551,21.461094761069532
1485864.8440590112,-18.506752,-4.2234826,-0.2368979,18.984040546654736
1485866.0,-10.459401,2.3498356,3.4146798,11.250814848816791
1485866.9084130782,-4.6900997,5.259612,5.4893312,8.932710149208779
1485868.064354067,0.15553902,7.2289753,1.899969,7.4761058363103485
1485869.2202950558,-1.2155973,3.1155663,-1.6319634,3.7212544530578042
1485870.3762360446,-4.4962745,-0.20100428,-3.3261423,5.596437232720283
1485871.5321770336,-12.203832,-4.563276,-2.2708697,13.225500086226536
1485872.6881180224,-15.27154,-6.0755935,-2.3641932,16.60488421627108
1485873.8440590112,-16.34117,-3.8621538,-3.4721096,17.146591906794967
1485875.0,-13.579754,0.57429796,-1.9071478,13.725040968187344
1485875.9084130782,-7.865489,6.4943523,3.8382246,10.898371304267506
1485877.064354067,-5.697514,5.7429795,10.399578,13.175534216710162
1485878.2202950558,-6.1354165,0.80641,9.688885,11.496439677560929
1485879.3762360446,-10.961912,-4.812138,2.0220072,12.141198455821394
1485880.5321770336,-14.125337,-4.314413,-7.786523,16.696384199211128
1485881.6881180224,-16.90111,-4.118195,-10.725014,20.436070429275805
1485882.8440590112,-14.017655,0.62454903,-8.542682,16.42748090679222
1485884.0,-11.720464,1.4812101,-2.0722585,11.994061656772498
1485884.9084130782,-6.695357,2.1249025,4.1612673,8.164506202704763
1485886.064354067,-4.398165,1.5458187,8.219639,9.449649523173635
1485887.2202950558,-1.1868824,1.1103094,8.406286,8.561957784814995
1485888.3762360446,-0.55754757,1.5673548,5.1878247,5.4480258332561196
1485889.5321770336,-2.7973096,0.37807947,-0.99305683,2.9923313572359076
1485890.6881180224,-9.19116,-2.8212388,-5.441473,11.04746300839946
1485891.8440590112,-14.000905,-5.5443683,-3.723365,15.512214786686487
1485893.0,-16.996826,-5.285934,0.16511066,17.80057453726361
1485894.9084130782,-17.647697,-2.1488314,2.1249025,17.90457752710019
1485896.064354067,-13.232781,2.2206187,0.70830077,13.436492488202912
1485897.2202950558,-10.82073,4.527382,0.2584341,11.732526313239907
1485898.3762360446,-7.154795,7.552018,0.5312256,10.41663419740006
1485899.5321770336,-5.3313994,5.185432,3.2734983,8.125780929181344
1485900.6881180224,-4.3909864,2.9002047,1.899969,5.594803934710139
1485901.8440590112,-9.492666,-0.70830077,0.05025107,9.519187094409624
1485903.0,-12.160759,-4.0799084,-1.823396,12.9558668170558
1485903.9084130782,-13.304569,-6.374707,-2.005257,14.88856948291739
1485905.064354067,-11.813787,-5.8386955,-0.7992313,13.202071772793424
1485906.2202950558,-8.312963,-1.5529974,2.239762,8.748353478250623
1485907.3762360446,-6.4656377,1.0026284,3.6420062,7.488253717455512
1485908.5321770336,-5.3816504,3.3261423,3.1347096,7.060579856074259
1485909.6881180224,-6.7336435,0.7418015,0.93323416,6.838358739338367
1485910.8440590112,-8.767615,1.665464,-3.6228628,9.631717291903081
1485912.0,-13.905189,-0.7705164,-4.524989,14.643206687693477
1485912.9084130782,-14.089443,-1.5123179,-4.374236,14.830153406644362
1485914.064354067,-15.197359,-4.3168063,-0.8231604,15.819991474420233
1485915.2202950558,-9.80853,-2.9504557,4.118195,11.039564287443026
1485916.3762360446,-5.4893312,-0.5623334,4.8552103,7.349968906959749
1485917.5321770336,-1.8664683,3.01985,0.18664683,3.5550014031718664
1485918.6881180224,-3.8645465,4.479524,-1.770752,6.175469015608632
1485919.8440590112,-4.3048415,3.022243,-0.026321989,5.2598769888920565
1485921.0,-8.109566,-0.6676214,3.1299238,8.718210942383786
1485921.9084130782,-13.007849,-4.668564,0.859054,13.84693465008819
1485923.064354067,-16.738392,-5.623334,-3.9602628,18.09639006725606
1485924.2202950558,-18.714933,-3.5606472,-7.6764493,20.539104156044083
1485925.3762360446,-15.0322485,3.512789,-6.4680305,16.73749085356594
1485926.5321770336,-9.124159,6.764751,0.54079723,11.371217841254195
1485927.6881180224,-2.6680925,8.32732,7.138045,11.28781034536731
1485928.8440590112,-3.2423904,5.5850477,10.1842165,12.059192304468807
1485930.0,-5.807588,1.0169859,3.4290373,6.820603749180427
1485930.9084130782,-12.158366,-7.1978674,-4.400558,14.798650938828942
1485932.064354067,-15.044213,-11.258633,-6.6546774,19.93413888574394
1485933.2202950558,-18.458893,-13.273461,-3.7425082,23.04174180332375
1485934.3762360446,-15.431865,-6.78868,-0.7705164,16.876680036171035
1485935.5321770336,-9.356271,1.0361292,1.4357449,9.522328190227936
1485936.6881180224,-0.9763065,7.6955924,4.2043395,8.82336599037693
1485937.8440590112,2.0339718,12.232546,6.214382,13.870499867244698
1485939.0,-1.2802058,10.095679,6.5206747,12.086391517099498
1485940.9084130782,-8.61447,-0.6197632,0.859054,8.679353292722348
1485942.064354067,-16.089914,-8.674292,-5.7501583,19.162280519388055
1485943.2202950558,-21.103056,-11.7228565,-10.267968,26.23348059079756
1485944.3762360446,-20.57901,-7.5113387,-9.301233,23.799764640989768
1485945.5321770336,-14.163623,2.8475606,-2.2086542,14.614888683530197
1485946.6881180224,-6.4799953,9.949712,7.6070547,14.101573996535215
1485947.8440590112,0.9834852,12.617805,8.748472,15.385447945751467
1485949.0,2.3737648,7.994706,3.390751,9.002626044447034
1485949.9084130782,-2.6633067,2.2062612,-2.0172215,4.003744952035854
1485951.064354067,-12.007613,-5.6687994,-1.1868824,13.331419520315123
1485952.2202950558,-17.50173,-10.497687,1.2730271,20.44829047476105
1485953.3762360446,-21.557709,-12.849916,0.8829831,25.112443483074735
1485954.5321770336,-19.380163,-7.111723,0.7896597,20.658917792979913
1485955.6881180224,-16.113844,0.80162424,1.5793194,16.2108858377853
1485956.8440590112,-10.24404,8.674292,1.9071478,13.558057012489247
1485958.0,-5.0322857,11.383064,2.371372,12.6697060169881
1485958.9084130782,-1.6822144,8.92794,-0.09332342,9.085519643470475
1485960.064354067,-4.5393467,4.97007,-1.8832186,6.989547665127326
1485961.2202950558,-10.679549,-1.2586696,-2.8762755,11.131485828822019
1485962.3762360446,-14.635026,-7.3462276,-2.2277975,16.52616494147036
1485963.5321770336,-16.209558,-11.832931,-0.28236315,20.071067623686663
1485964.6881180224,-13.395499,-10.12918,4.2282686,17.318138938267786
1485965.8440590112,-9.222268,-3.6348274,5.0370717,11.119095673774718
1485967.0,-3.8573678,4.0057282,3.6850784,6.671202857873432
1485967.9084130782,-1.1150951,7.4132295,2.5412683,7.915646105928381
1485969.064354067,-1.6032485,8.901618,1.3184924,9.14043932092621
1485970.2202950558,-9.155267,4.381415,0.60540575,10.167705117952972
1485971.3762360446,-14.0870495,-0.832732,-1.7540016,14.220229527404852
1485972.5321770336,-20.045391,-5.1519313,-4.8599963,21.259813275257482
1485973.6881180224,-20.693869,-2.864311,-6.381886,21.84419741283433
1485974.8440590112,-17.102114,1.1390243,-2.3043704,17.29421297906854
1485976.0,-8.621648,5.0466433,3.9004402,10.724497964339168
1485977.9084130782,-3.6252558,6.2981343,9.5500965,12.000554921985167
1485979.064354067,-1.9191123,6.070808,6.140202,8.845325454367368
1485980.2202950558,-4.637456,2.4766598,0.2057901,5.261386840190527
1485981.3762360446,-8.784366,-1.8951832,-5.8937325,10.74676175250361
1485982.5321770336,-13.524716,-6.190453,-6.661856,16.297851901112644
1485983.6881180224,-16.463207,-8.45893,-5.003571,19.173586107501905
1485984.8440590112,-16.666605,-9.131337,1.2467052,19.04498126775926
1485986.0,-12.397656,-4.905462,7.7123427,15.402780971305905
1485986.9084130782,-5.754944,2.5125535,11.196417,12.837135941143073
1485988.064354067,0.63651353,7.7219143,10.363685,12.939825219439502
1485989.2202950558,1.3256711,9.69367,3.9435124,10.548740777136812
1485990.3762360446,-4.094266,6.482388,-6.144988,9.825744031952185
1485991.5321770336,-11.433315,-1.014593,-11.155738,16.00626693422042
1485992.6881180224,-18.980547,-7.370157,-11.988469,23.62845250091125
1485993.8440590112,-22.517265,-8.542682,-7.4323726,25.20406319025922
1485995.0,-20.375612,-4.785816,0.75615895,20.943766984906635
1485995.9084130782,-11.237097,3.0772798,8.92794,14.67821898591573
1485997.064354067,-3.4505734,8.540289,12.220582,15.30312443297226
1485998.2202950558,0.78248096,11.354349,6.5757113,13.144333256864389
1485999.3762360446,-0.9451987,8.126316,-3.5750046,8.92810563357977
1486000.5321770336,-5.4630094,1.2993491,-8.5043955,10.191051104208015
1486001.6881180224,-12.861881,-6.855682,-6.8413243,16.100685597857485
1486002.8440590112,-15.647226,-10.634084,-1.430959,18.972798098167097
1486004.0,-17.346191,-12.038721,3.2112827,21.357281711482887
1486004.9084130782,-13.828616,-6.6474986,6.855682,16.805363245035256
1486006.064354067,-12.412014,-0.10050214,5.135181,13.432731521142733
1486007.2202950558,-8.777187,6.692964,1.0648441,11.089124027422987
1486008.3762360446,-6.7025356,6.6809993,0.34697166,9.469959052113742
1486009.5321770336,-6.1234517,5.2739697,-0.9404129,8.136079740344082
1486010.6881180224,-10.839873,1.1462029,-1.7611804,11.041665822938203
1486011.8440590112,-13.249532,-1.8329676,-5.649656,14.5199339309795
1486013.0,-14.101407,-4.137338,-5.599405,15.726429393219492
1486014.9084130782,-11.761144,-3.3165705,-4.481917,13.015826061571937
1486016.064354067,-8.523539,-0.36611494,0.021536173,8.531425498740505
1486017.2202950558,-5.0657864,1.8281817,4.5106316,7.024972427672468
1486018.3762360446,-2.9767776,2.0387578,8.38475,9.128075964266655
1486019.5321770336,-4.1493025,-0.27997026,5.068179,6.556030274413908
1486020.6881180224,-9.119372,-3.5175748,-0.70112205,9.79938009656607
1486021.8440590112,-12.452694,-5.3242207,-4.474738,14.263246267543321
1486023.0,-15.881731,-3.8573678,-5.025107,17.098548659529175
1486023.9084130782,-17.896559,-1.2323477,-4.3335567,18.45495105835535
1486025.064354067,-13.395499,3.0054924,-2.0722585,13.884042398245583
1486026.2202950558,-8.868117,4.814531,0.9691278,10.13717991200624
1486027.3762360446,-6.831753,7.410836,1.5960697,10.20493889051586
1486028.5321770336,-7.4778376,6.489567,3.2854629,10.432008506837942
1486029.6881180224,-7.604662,3.5989337,2.2469406,8.708154222977912
1486030.8440590112,-10.162681,-2.0244002,1.6534995,10.493442803676079
1486032.0,-13.60129,-5.6640134,-0.8183746,14.7562147736269
1486032.9084130782,-17.647697,-9.475916,-2.134474,20.14423422966336
1486034.064354067,-15.278718,-8.880082,-1.7659662,17.75989067167336
1486035.2202950558,-11.871217,-6.2622404,0.96434194,13.456277466882293
1486036.3762360446,-5.7812657,0.34457877,2.3378713,6.245591232068818
1486037.5321770336,-2.5867336,4.2856984,4.010514,6.414251635017722
1486038.6881180224,-1.430959,8.054528,-0.10289505,8.181298940497133
1486039.8440590112,-4.3838077,6.745608,-2.9552414,8.570557098142293
1486041.0,-8.233996,3.0629225,-5.601798,10.419228627966
1486041.9084130782,-14.797744,-2.9193478,-4.4675593,15.73069944935435
1486043.064354067,-17.685984,-6.5302463,-1.7061435,18.93011020648089
1486044.2202950558,-18.28421,-9.145695,2.8236315,20.638046593728713
1486045.3762360446,-13.0102415,-5.515653,4.7786374,14.91724462846306
1486046.5321770336,-7.9324903,0.2919348,6.2430973,10.09880647325774
1486047.6881180224,-1.87604,6.0061994,5.5084743,8.362849181225311
1486048.8440590112,-1.430959,8.549861,1.926291,8.880223183889187
1486050.0,-4.761887,8.190925,-5.154324,10.78581828390271
1486051.9084130782,-11.158131,1.7755378,-7.422801,13.518668446928892
1486053.064354067,-15.819515,-3.2471762,-7.011221,17.605636257173792
1486054.2202950558,-18.999691,-7.0782223,-2.079437,20.381696378384877
1486055.3762360446,-17.71709,-5.778873,1.8090385,18.72333494633665
1486056.5321770336,-12.644126,-1.4955676,4.343128,13.452635636723004
1486057.6881180224,-6.2119894,2.629806,4.757101,8.254374708453048
1486058.8440590112,-1.8927903,5.285934,3.9746203,6.879052253130673
1486060.0,-1.8784329,4.245019,2.3235137,5.191089710672616
1486060.9084130782,-6.11388,-0.81119585,-0.06460852,6.167798766360152
1486062.064354067,-10.629298,-5.857839,-4.6661706,13.00266902566659
1486063.2202950558,-14.4483795,-10.224896,-5.0322857,18.401849574248256
1486064.3762360446,-14.857566,-9.889889,-2.656128,18.044727424626313
