timestamp,accel_x,accel_y,accel_z,magnitude
938888.749276411,-6.898754,6.1114874,2.833203,9.6421016501634
938906.8328509406,-12.613019,4.824103,2.1057591,13.667276225942125
938924.9164254704,-7.398872,4.524989,1.6606783,8.830440800922448
938943.0,-10.054999,7.4323726,-0.2680057,12.506598035055907
938960.749276411,-17.001612,9.497452,-11.0289135,22.380646507224277
938978.8328509406,-10.437865,6.3483853,-1.9358627,12.369259721936976
938996.9164254704,-10.653227,4.070337,7.453909,13.624230186963922
939015.0,-7.630984,5.0921082,-4.115802,10.054914660600916
939032.749276411,-3.6898644,7.968384,5.5611186,10.394050362833024
939050.8328509406,-7.6381626,0.9571632,4.307235,8.820995558365167
939068.9164254704,-26.61153,10.311041,1.2395264,28.566195426428035
939087.0,-15.738156,10.445044,3.8812969,19.283489416291378
939105.749276411,-23.926687,20.425863,-1.9621847,31.52066621896898
939123.8328509406,-14.173195,-3.9626558,7.3510137,16.45051670662312
939141.9164254704,-12.648912,5.173467,5.498903,14.730840769869246
939160.0,-6.7312503,0.22971918,-1.0098072,6.810448743224033
939177.749276411,6.152167,4.3670573,1.8521109,7.768568918615005
939195.8328509406,-6.561354,6.0875583,6.637927,11.143240427566118
939213.9164254704,8.44218,21.268167,-8.222033,24.314751846263576
939232.0,-0.6389065,-6.109094,-5.2261114,8.0648292841069
939249.749276411,-20.416292,4.9844275,9.164838,22.92735815784854
939267.8328509406,-31.641424,0.2057901,6.3053126,32.26420662741845
939285.9164254704,-14.457951,27.152328,-6.264633,31.39310257943095
939304.0,-27.662018,18.494787,5.534796,33.732452516372256
939321.749276411,-17.37012,5.757337,10.720228,21.208283441098033
939339.8328509406,7.394086,-2.1201165,-10.442651,12.96982504341401
939357.9164254704,-12.761379,15.278718,2.761416,20.097697281783827
939376.0,-22.309082,-18.166958,-9.533346,30.308714730456717
939394.749276411,7.70995,15.6256895,10.96909,20.589473931623658
939412.8328509406,-16.338776,11.174881,-0.45704544,19.800062047290705
939430.9164254704,-4.5202036,-3.8286529,23.924295,24.64675870903021
939449.0,-9.839638,-21.768286,-10.904482,26.25994057565942
939466.749276411,7.786523,14.871923,-3.436216,17.135098906808622
939484.8328509406,-13.199281,18.272245,4.8815327,23.06350618960949
939502.9164254704,-25.202108,7.3893003,7.9013824,27.425897440161805
939521.0,-1.0217718,13.570182,-9.597955,16.65276545521567
939538.749276411,21.028877,-21.581638,-5.4319015,30.618398399489735
939556.8328509406,-9.851603,-0.70112205,30.835014,32.37813679288543
939574.9164254704,3.3261423,19.686455,10.375649,22.500529443505883
939593.0,-18.073635,-2.7279153,1.8592896,18.3726634382135
939611.749276411,-22.852272,-5.1375737,7.9516335,24.7355912483053
939629.8328509406,-12.936061,1.8473251,-10.167466,16.55692148564965
939647.9164254704,-35.276253,-3.5295393,15.266753,38.599811146601
939666.0,-17.506516,6.6355343,18.279425,26.165737066541
939683.749276411,-9.045193,18.55461,-0.047858164,20.641980502442358
939701.8328509406,11.395028,-1.433352,-18.566574,21.83160166305175
939719.9164254704,2.4407663,-6.2789907,0.13400285,6.7380279834466625
939738.0,-13.0581,19.50938,9.995177,25.51535707874238
939756.749276411,-55.139782,1.7133222,8.389536,55.80067514164889
939774.8328509406,-19.186337,-4.536954,13.63479,23.970961128410874
939792.9164254704,26.089876,-11.883182,5.3266134,29.15929447798008
939811.0,-5.3577213,20.703442,-5.6329055,22.114866324438136
939828.749276411,-4.1277666,-22.105684,-27.719448,35.694082417631016
939846.8328509406,17.863058,-6.927469,2.4838386,19.319630484255512
939864.9164254704,0.08614469,20.456972,8.432608,22.12699713015897
939883.0,-39.992672,-12.3665495,0.055036888,41.861060537145676
939901.749276411,26.12577,-17.286367,0.021536173,31.326902271982405
939919.8328509406,-31.26813,-8.793938,-8.726935,33.633148733637306
939937.9164254704,31.914215,-5.5946193,1.4357449,32.43267253243299
939956.0,-22.263617,2.1225095,11.112665,24.97328596525704
939973.749276411,8.375178,6.7862873,7.686021,13.239041531102858
939991.8328509406,-4.4914885,34.134834,-11.21556,36.20979352698367
940009.9164254704,1.4142087,-2.031579,8.846581,9.18636461664557
940028.0,-41.19152,-13.460108,-2.603484,43.413062046120636
940045.749276411,18.559395,26.68332,-12.148794,34.69933579541345
940063.8328509406,-36.733532,-6.613998,8.686256,38.32164383265107
940081.9164254704,13.838187,36.55885,-19.875494,43.85293826545155
940100.0,-5.0274997,-19.911388,13.35482,24.496741468049258
940117.749276411,-13.768793,-15.393578,-4.268948,21.089471812865227
940135.8328509406,13.615647,-20.72737,3.7305436,25.078410354267074
940153.9164254704,-32.663197,-16.82693,29.95921,47.40869408990094
940172.0,-9.645813,58.36303,-8.059315,59.70123564450818
940190.749276411,1.7516087,5.329006,12.043507,13.285800647495831
940208.8328509406,-31.320774,-44.182655,-6.432137,54.5387043593343
940226.9164254704,-1.2754201,2.2612982,16.207167,16.41378774526758
940245.0,59.05458,-7.444337,-2.9600272,59.59549759311276
940262.749276411,-45.93905,-34.902958,23.79747,62.409393287013806
940280.8328509406,-17.726664,55.448467,-43.40496,72.61375669816694
940298.9164254704,0.66044265,24.857529,-27.372477,36.98087924313467
940317.0,6.403422,11.091129,40.732082,42.69800299615251
940334.749276411,-23.90276,-34.77374,15.93916,45.10667080056785
940352.8328509406,-12.256475,37.28151,2.029186,39.29694343238823
940370.9164254704,1.8449322,11.390243,-26.566065,28.963722481854276
940389.0,0.110073775,-28.92308,19.882673,35.09811046975708
940406.749276411,-7.865489,17.384478,35.714153,40.49181049359258
940424.8328509406,-33.536606,-63.014843,12.833166,72.52768112863833
940442.9164254704,-7.236154,42.916805,-4.57524,43.7623913557902
940461.0,2.6609137,19.96164,28.343996,34.76966554996559
940479.749276411,29.808456,-9.746315,-15.69987,35.07164984998654
940497.8328509406,-6.893968,13.584539,-17.97074,23.55873491457351
940515.9164254704,-16.446457,-34.984318,-5.230897,39.009623648563725
940534.0,-45.304928,-51.53606,7.731486,69.05271795647859
940551.749276411,-31.476313,17.030327,-11.763536,37.671887356810174
940569.8328509406,-8.262712,19.614668,5.6879425,22.0308942221707
940587.9164254704,-0.3565433,33.89076,-23.63954,41.32237393850909
940606.0,-0.30150643,14.845602,14.558453,20.794983977463033
940623.749276411,15.238039,22.890558,18.226782,32.990772349134375
940641.8328509406,47.14029,-15.987019,-21.811357,54.34636153388661
940659.9164254704,11.095915,5.7405863,3.5773976,12.995054226260791
940678.0,-5.5060816,-0.3852582,11.780287,13.00924749049286
940695.749276411,3.3548572,-15.462972,32.088898,35.77786948323754
940713.8328509406,-23.242317,-31.930965,11.921468,41.25425098865253
940731.9164254704,-37.939556,-34.96039,21.220308,55.78476718642913
940750.0,-42.371223,-36.13052,61.39245,82.88406319063171
940768.749276411,-42.634445,-4.1014442,-10.078929,44.001165379689425
940786.8328509406,-26.226273,-19.200695,18.650326,37.47424107116554
940804.9164254704,-52.414257,-45.89837,24.144444,73.73512651096549
940823.0,-28.813005,0.46661708,12.900167,31.57247689455583
940841.749276411,-19.183945,21.66539,12.64652,31.580806476806842
940859.8328509406,2.4168372,20.325361,-13.012634,24.254691204993332
940877.9164254704,-24.656525,29.808456,0.12443122,38.68467083106785
940896.0,-16.814964,-49.999813,10.399578,53.76686281469609
940913.749276411,2.4048727,29.040333,-16.726427,33.599073106864466
940931.8328509406,-20.674726,27.81277,-10.9284115,36.337647807216534
940949.9164254704,-27.678768,16.266989,-6.0684147,32.673456904575026
940968.0,-20.37322,-2.6250203,-9.827674,22.771517318661225
940986.749276411,-34.18987,-15.171038,6.7551794,38.00973629664547
941004.8328509406,-53.41928,-27.834307,33.589252,68.96815186597473
941022.9164254704,-19.7726,38.25303,-15.391185,45.7289688342644
941041.0,-24.218622,24.304768,-4.0799084,34.55298904096574
941058.749276411,-35.754833,34.634953,-22.069792,54.45239913073952
941076.8328509406,-51.05748,-31.287273,-12.62259,61.19713632217629
941094.9164254704,-47.243183,-43.270958,16.831715,66.23896720247438
941113.0,-41.387737,-29.930494,24.548843,56.669435657185204
941130.749276411,-57.274254,-41.985966,54.089294,89.26820955764772
941148.8328509406,8.915976,-40.77994,29.650524,51.20206741832553
941166.9164254704,-8.7389,2.2301903,-0.6389065,9.041588549583327
941185.0,35.781155,-16.434492,10.136358,40.65869321481266
941202.749276411,55.604004,-26.312418,-22.766129,65.59302730842191
941220.8328509406,-1.4189945,-30.533506,1.8975761,30.625305371511928
941238.9164254704,2.237369,17.394049,-23.144207,29.038131453580327
941257.0,18.714933,20.500044,-13.077243,30.684113245741255
941275.749276411,-6.2933483,31.801748,8.525931,33.520872722788376
941293.8328509406,-28.961367,46.266876,25.197323,60.11896272952815
941311.9164254704,-21.148521,35.486828,-7.6716633,42.01701226619513
941330.0,-28.583286,-9.770244,-19.310768,35.8520245889567
941347.749276411,-19.631418,-23.63954,-5.43908,31.20583303404548
941365.8328509406,-0.45465255,25.558651,13.936296,29.1148020099852
941383.9164254704,57.92752,-33.024525,-4.326378,66.82016440734719
941402.0,37.34133,26.013304,-8.145459,46.232190230249714
941419.749276411,5.6089764,4.216304,-49.82513,50.31681046323458
941437.8328509406,-6.475209,47.451366,-15.010713,50.18846452749881
941455.9164254704,-37.02786,-8.758043,-15.635262,41.13668862679752
941474.0,-20.643618,-59.155083,24.319124,67.20790579235593
941491.749276411,-14.737921,-38.169277,14.137301,43.28929777288575
941509.8328509406,42.27551,-27.908487,-22.275581,55.338087257121835
941527.9164254704,10.760908,27.17147,-9.652991,30.77768929259383
941546.0,-36.78857,62.69419,-13.579754,73.9484283883134
941564.749276411,-54.642056,-35.149426,-19.176765,67.74204564302613
941582.8328509406,-26.752712,-49.226906,16.197596,58.32116245298096
941600.9164254704,5.336185,-43.302063,16.898718,46.787927935031675
941619.0,31.794569,26.838858,-16.429707,44.73426191126633
941636.749276411,-11.019341,64.08687,-35.08482,73.88841165503277
941654.8328509406,-51.0503,-47.70262,-0.9547703,69.87549406823656
941672.9164254704,-40.765583,-24.029583,23.144207,52.67739490656905
941691.0,0.5264398,-24.544058,13.443357,27.98949391110595
941708.749276411,33.88358,-8.379964,0.7346228,34.91218212767538
941726.8328509406,-6.4464946,66.513275,-21.993217,70.35108128424567
941744.9164254704,-59.155083,21.339954,9.258162,63.564385036569405
941763.0,-12.895382,-36.101803,26.65939,46.69426230222331
941780.749276411,36.924965,9.107409,-27.214544,46.76568554049477
941798.8328509406,10.751336,28.738827,-21.21313,37.3029259913713
941816.9164254704,-41.00966,49.53559,-2.861918,64.37202392811977
941835.0,-22.311476,-15.283504,-19.940104,33.60052385525273
941853.749276411,28.121456,-13.249532,0.7681235,31.095922554094003
941871.8328509406,42.67512,3.62047,-17.920488,46.426474776720276
941889.9164254704,-17.114079,14.491451,-0.3326142,22.42776146452614
941908.0,-42.052967,29.908958,-7.360585,52.12653847792963
941926.749276411,8.186138,-18.073635,8.229211,21.479968602183522
941944.8328509406,24.412449,8.662328,-8.939904,27.40301947024088
941962.9164254704,-13.89801,57.91077,-3.1036017,59.63593134566813
941981.0,-42.469334,14.314376,17.958775,48.28108625718313
941998.749276411,-25.29304,-6.5757113,7.552018,27.203140028586255
942016.8328509406,30.081247,-24.625418,2.084223,38.931177971690786
942034.9164254704,-19.332304,30.339682,4.8264956,36.29778700673582
942053.0,-46.59949,15.786015,20.983412,53.48845031408247
942070.749276411,-33.96015,-15.498866,3.7090075,37.51350919260303
942088.8328509406,27.216936,-3.9913707,-1.354386,27.54136900609537
942106.9164254704,3.153853,42.76127,-12.450301,44.64843777501191
942125.0,-58.394135,-8.176567,14.83603,60.80163679099942
942143.749276411,9.54531,-0.43790218,0.5838696,9.573171106020874
942161.8328509406,41.81607,-31.87832,-7.554411,53.12137161090836
942179.9164254704,-4.936569,55.98687,-12.601054,57.59935666133414
942198.0,-43.32121,-15.367256,-11.368707,47.3511065518588
942215.749276411,-4.7594943,-2.0961876,-7.764987,9.345684113872844
942233.8328509406,11.51228,-7.6692705,-10.002356,17.070366907342862
942251.9164254704,-3.9722273,23.34282,-12.053078,26.569578930599356
942270.0,-27.72902,24.113335,4.6422415,37.039193850932385
942287.749276411,-24.024797,-5.080144,-1.1725249,24.584010018568268
942305.8328509406,25.817085,-20.662762,-3.4218585,33.24425855632655
942323.9164254704,-12.68002,41.985966,7.822417,44.55103204052006
942342.0,-68.027985,-9.636241,5.1758604,68.90176641168638
942360.749276411,-6.968148,-29.133656,16.467993,34.183618765781496
942378.8328509406,29.499771,10.337363,11.698928,33.37607644998725
942396.9164254704,-31.923786,47.415474,-2.8164527,57.23012924177098
942415.0,-32.866592,-33.742397,-6.9155045,47.60868016958244
942432.749276411,7.142831,-12.440729,-8.324927,16.58602370374922
942450.8328509406,42.955093,12.500552,-34.08219,56.240550229700396
942468.9164254704,-0.22971918,22.199009,-3.2304258,22.434001478404305
942487.0,-34.579914,3.4051082,-1.5601761,34.782170196296185
942504.749276411,-4.034443,-34.132442,34.536842,48.72467324196825
942522.8328509406,22.48137,-20.411507,-8.1119585,31.430009319019796
942540.9164254704,14.63024,-7.054293,-12.345013,20.40113521737499
942559.0,-6.042093,10.9786625,-5.0633936,13.515763865134529
942576.749276411,-23.87165,12.177509,7.549625,27.84141226317742
942594.8328509406,-24.17555,8.155031,13.936296,29.072015661337915
942612.9164254704,-27.20258,2.9935281,14.778601,31.102228483809494
942631.0,-25.340897,2.390515,12.775736,28.47973056529029
942649.749276411,-19.442379,4.9533195,8.851367,21.92916261550838
942667.8328509406,-12.735057,5.941591,5.281148,15.012484957608915
942685.9164254704,-7.3390493,5.5826545,0.7059079,9.248025835684238
942704.0,-2.0985804,11.071986,-2.8092742,11.613997382910236
942721.749276411,0.54558307,11.395028,-3.4673238,11.92336606588513
942739.8328509406,-6.070808,5.7501583,1.7324655,8.539348157594533
942757.9164254704,-17.37012,3.5271466,9.708028,20.209097941300488
942776.0,-9.289269,5.7358007,-3.649185,11.51114587644108
942793.749276411,-4.6015625,6.3914576,0.37568656,7.884557570680085
942811.8328509406,-14.139694,5.5515466,3.6061125,15.612644344513322
942829.9164254704,-1.170132,9.105016,0.3565433,9.186819274507085
942848.0,-14.422057,4.587205,5.941591,16.258557175670756
942865.749276411,-1.9908996,8.863332,-0.37568656,9.091945652657014
942883.8328509406,-13.481645,6.487174,3.493646,15.363715071089317
942901.9164254704,-7.0710435,4.094266,1.8473251,8.377068716605962
942920.0,-6.7480006,4.6972785,-2.7901309,8.682440200962942
942938.749276411,-11.146166,6.558961,1.4979604,13.019250026750587
942956.8328509406,-5.599405,8.183745,1.1653463,9.984240110192347
942974.9164254704,-5.1662884,6.5852833,-0.5910483,8.390818200042613
942993.0,-8.269891,6.848503,1.0528796,10.788959446813495
943011.749276411,-9.267733,5.541975,1.4596739,10.89655953749876
943029.8328509406,-9.361056,4.8288884,2.6010911,10.84957176690812
943047.9164254704,-9.320377,6.0540576,0.6676214,11.134036068739167
943066.0,-8.121531,5.360114,1.2467052,9.810421078254697
943083.749276411,-8.973405,5.8243384,1.6152129,10.819141731397458
943101.8328509406,-9.478309,5.384043,-0.6867646,10.922358085191272
943119.9164254704,-8.557039,9.073908,1.3424214,12.544354031003865
943138.0,-10.232075,5.0849295,1.9861137,11.597263231250851
943155.749276411,-10.136358,9.140909,0.30629224,13.652684197136079
943173.8328509406,-6.1928463,6.6259627,-1.9095407,9.268283157207243
943191.9164254704,-2.7255223,7.8128448,-3.0677083,8.824956084342471
943210.0,-6.7216787,10.267968,1.4094229,12.353080761741264
943228.749276411,-9.344306,3.62047,3.646792,10.66409628303308
943246.8328509406,-3.8812969,3.3357139,-2.9313123,5.89779998378498
943264.9164254704,-8.576182,4.03205,4.9269977,10.6809939254467
943283.0,-10.916447,4.405344,2.502982,12.034981917496554
943300.749276411,-3.1490672,9.164838,-3.0820656,10.169071155177507
943318.8328509406,-10.961912,4.7331724,3.330928,12.396028275421516
943336.9164254704,-2.445552,4.4723454,3.512789,6.190499537204261
943355.0,-8.882475,9.227054,-4.967677,13.73734699353809
943372.749276411,-3.278284,9.475916,0.3326142,10.032485346600494
943390.8328509406,-8.937511,7.3199058,1.6104271,11.66420161178677
943408.9164254704,-9.935354,5.3816504,5.857839,12.727438779387516
943427.0,-0.33500713,8.569004,-2.7015932,8.991032485062718
943445.749276411,-10.653227,3.4290373,2.5316968,11.474276927347121
943463.8328509406,-12.160759,3.3452854,5.3385777,13.69581708853004
943481.9164254704,-3.125138,9.947319,-1.6080343,10.54994867839562
943500.0,-2.4144442,3.256748,1.4859959,4.317885147295427
943517.749276411,-7.2289753,4.3646646,-1.2802058,8.540919613768583
943535.8328509406,-9.535739,3.9626558,5.053822,11.496698485786197
943553.9164254704,-13.125101,2.7805593,4.027264,14.007806452357682
943572.0,-10.344542,7.6333766,-1.4142087,12.933598638984716
943589.749276411,-12.012399,6.020557,6.2383113,14.81422843759194
943607.8328509406,-10.01432,13.239961,-1.5553902,16.673404302006745
943625.9164254704,-12.7542,4.300056,7.0423284,15.190605272226074
943644.0,-12.969562,8.198103,1.2155973,15.39142969532786
943661.749276411,-12.904953,5.6329055,2.5819478,14.315512241832776
943679.8328509406,-8.832224,4.8456388,-0.5025107,10.086670073411538
943697.9164254704,-5.5635114,3.0581365,1.4955676,6.522390696418911
943716.0,-2.9313123,5.7621226,1.0241647,6.545499369054139
943734.749276411,-4.469952,11.940612,-0.14357449,12.750658784981534
943752.8328509406,-9.19116,2.0411506,2.0459363,9.634810494303354
943770.9164254704,-7.6070547,2.3235137,3.4242516,8.659763053512627
943789.0,-4.7331724,5.472581,-2.3043704,7.593562188464576
943806.749276411,-11.7228565,8.829831,3.7592585,15.15002655040497
943824.8328509406,-10.495295,6.274205,-2.2206187,12.427711492058371
943842.9164254704,-1.2634555,10.457008,-4.137338,11.316488052341514
943861.0,-13.0581,10.378042,0.6580497,16.692835612065256
943878.749276411,-5.072965,4.529775,0.26082698,6.806016908247138
943896.8328509406,-9.401736,7.992313,-1.3591717,12.414389014919175
943914.9164254704,-3.749687,5.029893,-0.5886554,6.30130870290983
943933.0,-14.043978,4.869568,5.223718,15.755419395072666
943950.749276411,-4.010514,6.870039,0.703515,7.986024778382672
943968.8328509406,-9.880318,6.015771,-2.5316968,11.841438814295131
943986.9164254704,-3.9674416,3.280677,-0.36611494,5.1611505090464815
944005.0,-6.613998,4.843246,-0.79205257,8.235857492341863
944023.749276411,-12.9097395,4.1038375,1.7922882,13.664375330622535
944041.8328509406,-6.86286,5.4055796,1.2419193,8.823916462617303
944059.9164254704,-3.2328188,1.3208853,0.071787246,3.4929942424913607
944078.0,-9.358664,2.4599094,-0.36372203,9.683389893844597
944096.749276411,-13.613255,7.231368,-0.78248096,15.434560936392442
944114.8328509406,-9.064336,12.450301,2.7231295,15.63929718322621
944132.9164254704,-3.1083877,6.5733185,-1.8138243,7.494034213107386
944151.0,-2.263691,5.2452545,0.12682413,5.714287013547841
944168.749276411,-5.1686816,2.474267,0.34936458,5.741021013654813
944186.8328509406,-5.970306,4.869568,-3.8430104,8.609644311745297
944204.9164254704,-10.272755,2.368979,0.5527618,10.556850969868108
944223.0,-9.0428,5.4534373,0.6293348,10.578670640280013
944240.749276411,-6.716893,7.7195215,-1.4453164,10.334244203545811
944258.8328509406,-6.034914,3.5008245,-0.6676214,7.008685861196391
944276.9164254704,-5.0921082,2.4575167,-0.021536173,5.654150516039842
944295.0,-7.6908064,0.3517575,1.3950654,7.824221615685765
944313.749276411,-5.1638956,6.2287397,-0.14118157,8.092153499147376
944331.8328509406,-4.314413,8.624041,-1.4716384,9.754689245927036
944349.9164254704,-6.7575727,9.045193,1.1749178,11.351684326116152
944368.0,-9.638634,6.458459,0.83751786,11.632557509269231
944385.749276411,-14.668527,5.329006,3.1610315,15.923445275497297
944403.8328509406,-6.3148847,0.3326142,0.90451926,6.3880009449002655
944421.9164254704,-0.3804724,5.6352987,-1.3089207,5.79781200835901
944440.0,-12.495766,8.375178,3.0366004,15.346293247808088
944457.749276411,-6.3388133,0.42833054,-0.043072347,6.353414541081801
944475.8328509406,-3.15146,7.7673798,-1.9861137,8.614437690202172
944493.9164254704,-9.913818,9.495059,1.0337363,13.766210207916435
944512.0,-3.204104,6.9370403,-1.170132,7.730331135473052
944529.749276411,-5.3457565,10.811159,0.021536173,12.060627483150316
944547.8328509406,-7.85831,6.3483853,-4.175625,10.931188229738847
944565.9164254704,-1.2754201,7.3390493,-1.6295704,7.625210865797134
944584.0,-12.969562,4.843246,3.5917552,14.302701692515544
944602.749276411,-5.15911,3.7472942,2.215833,6.75044781457813
944620.8328509406,-10.5862255,7.7625937,-2.7039862,13.40289418961145
944638.9164254704,-2.0674727,9.609919,-0.8542682,9.866851610789407
944657.0,-7.3510137,8.23639,-5.573083,12.366680103187624
944674.749276411,-9.959284,8.686256,3.907619,13.780706343992422
944692.8328509406,-6.544604,6.432137,-0.3613291,9.183397335523047
944710.9164254704,-11.402207,7.922919,0.07657306,13.884841856676935
944729.0,-5.15911,8.992549,1.4261732,10.4650047064442
944746.749276411,-6.824574,1.9167194,4.357486,8.32083576210998
944764.8328509406,-8.308177,4.5848117,0.60301286,9.50841353208364
944782.9164254704,-11.143773,5.0657864,5.3529353,13.36038116417118
944801.0,-6.4967456,4.4101295,5.228504,9.433673710485518
944819.749276411,-3.2591407,8.083243,0.43790218,8.726544208258744
944837.8328509406,-7.9277043,7.1978674,-3.328535,11.213248227986673
944855.9164254704,-12.0650425,4.2569833,2.1201165,12.96850227732013
944874.0,-11.978898,4.5537043,2.7255223,13.101858339718062
944891.749276411,-5.6137624,4.757101,3.7879734,8.2760546570792
944909.8328509406,-7.9803486,7.6908064,3.7114005,11.687983595608062
944927.9164254704,-4.300056,4.242626,3.22564,6.8480004664582195
944946.0,-2.81406,8.166995,-0.69155043,8.66585154562771
944963.749276411,-3.3476784,7.3557997,-0.54558307,8.100148195102191
944981.8328509406,-7.9635983,5.4534373,2.266084,9.914333712552256
944999.9164254704,-5.6903353,-0.24886245,3.1682103,6.517622637931118
945018.0,-4.773852,10.512045,-3.2950344,12.006248568854152
945036.749276411,-7.815238,8.791544,2.41923,12.009240804209066
945054.8328509406,-5.4630094,7.0901866,3.0820656,9.466485413817066
945072.9164254704,-8.200496,11.383064,-1.5194967,14.11138373425593
945091.0,-10.591011,8.456537,1.6271775,13.650283464126167
945109.749276411,-7.492195,7.2505116,-1.6199988,10.551175313289084
945127.8328509406,-8.463716,3.7568657,-1.2849916,9.348782371440842
945145.9164254704,-10.937983,2.782952,1.5697477,11.395104290187444
945164.0,-10.01432,8.248354,3.4984317,13.437297835922253
945181.749276411,-12.787701,6.511103,4.321592,14.98652449891148
945199.8328509406,-7.4826236,4.9341764,-1.9502201,9.172737384447345
945217.9164254704,-4.8719606,3.9913707,1.3137065,6.433728695003629
945236.0,-6.6283555,10.327791,0.18664683,12.273271797414505
945253.749276411,-10.96909,9.894675,-1.6056414,14.859462072670024
945271.8328509406,-8.765223,2.4168372,1.4357449,9.204976898879696
945289.9164254704,-6.4464946,10.600583,-0.6293348,12.422790139828058
945308.0,-8.719757,6.1928463,0.5647263,10.71001509001665
945325.749276411,-8.518753,6.355564,-2.290013,10.87228154405845
945343.8328509406,-9.451987,10.827909,-0.49533197,14.38155156166935
945361.9164254704,-6.2933483,1.0504867,5.4031863,8.360871804094204
945380.0,-6.3053126,10.591011,-0.6460852,12.342767399230159
945398.749276411,-7.8319883,2.7398798,0.30150643,8.30288432878095
945416.8328509406,-7.865489,11.016949,0.8542682,13.563511958016377
945434.9164254704,-6.7862873,0.06221561,3.4721096,7.623195601234506
945453.0,-9.853995,8.1119585,2.5221252,13.010234574757762
945470.749276411,-4.50106,5.4271154,-1.40703,7.189774412971325
945488.8328509406,-8.592933,5.4701877,0.90451926,10.22641707087244
945506.9164254704,-3.6778998,6.6498914,0.2967206,7.605001359966897
945525.0,-5.9296265,1.4213874,2.603484,6.630153958139812
945542.749276411,-9.294055,9.28209,0.08375178,13.135587823610262
945560.8328509406,-6.11388,2.268477,1.7396442,6.749213176105985
945578.9164254704,-4.5537043,5.1878247,0.35415038,6.911958511263123
945597.0,-9.382592,10.471366,-1.3831009,14.127827385836818
945614.749276411,-6.2072034,8.23639,2.443159,10.598892403470872
945632.8328509406,-5.647263,1.3950654,5.029893,7.690098208273751
945650.9164254704,-5.5802617,7.262476,-2.263691,9.434361411062431
945669.0,-9.028442,12.237332,-1.9430413,15.331029610534763
945687.749276411,-10.995413,5.876982,4.941355,13.411003456301023
945705.8328509406,-5.5395823,1.7851094,4.4867024,7.348747243891807
945723.9164254704,-7.992313,3.2112827,1.9071478,8.82193949199002
945742.0,-0.3828653,1.7109293,-1.4477094,2.273703457883402
945759.749276411,-7.5209103,8.932726,-0.6101916,11.693161220150548
945777.8328509406,-5.1878247,6.1497736,-0.34936458,8.053278590670114
945795.9164254704,-10.3924,7.6764493,-0.27518442,12.923063803931374
945814.0,-10.859017,4.395772,1.978935,11.880961468521729
945831.749276411,-10.332577,10.768086,-0.21057591,14.92508511795485
945849.8328509406,-8.090423,7.4706593,0.442688,11.02096490153877
945867.9164254704,-5.960734,8.1622095,-0.911698,10.148064198843553
945886.0,-7.056686,8.425429,-1.0050215,11.036065392706734
945903.749276411,-5.281148,6.712107,0.6532639,8.565609044335154
945921.8328509406,-3.3740003,2.8547394,1.225169,4.586333409693788
945939.9164254704,-7.2457256,7.705164,-1.7396442,10.718976335452234
945958.0,-8.987762,10.555118,-2.0890088,14.019783861709332
945976.749276411,-6.6355343,9.99757,-1.4429235,12.085683662012205
945994.8328509406,-9.078693,5.7070856,1.5003533,10.827952376086499
946012.9164254704,-5.723836,3.2998202,-0.40200856,6.619117976704851
946031.0,-6.78868,4.8336744,3.8310459,9.172104286123341
946048.749276411,-10.995413,7.1404376,0.28236315,13.113530611873397
946066.8328509406,-7.2217965,7.6692705,-1.5649619,10.649937109581169
946084.9164254704,-7.686021,7.630984,0.55036885,10.84480251050001
946103.0,-4.8073525,1.797074,1.7109293,5.409934573572101
946121.749276411,-11.237097,8.1526375,0.6795859,13.899628922719272
946139.8328509406,-6.5493894,3.8860826,0.7106937,7.648609352168197
946157.9164254704,-7.142831,7.0686507,-1.2825987,10.130691824274054
946176.0,-11.603211,7.9994917,0.40679437,14.099356532422094
946194.749276411,-6.843717,8.403893,-1.61282,10.957329432117024
946212.8328509406,-3.8884757,5.4510446,0.031107806,6.69590159696764
946230.9164254704,-9.516596,6.877218,-0.24407662,11.74398996266476
946249.0,-6.7838945,5.5635114,0.6867646,8.800314159214622
946266.749276411,-8.822652,5.9056973,2.21344,10.845080246172975
946284.8328509406,-7.2481184,6.690571,0.8734115,9.90261623485389
946302.9164254704,-8.954262,6.1330233,2.1296883,11.060214962564867
946321.0,-7.449123,6.1306305,1.4548881,9.756575381771048
946338.749276411,-5.790838,6.4464946,0.45465255,8.677430858917555
946356.8328509406,-7.7243075,7.0901866,0.5049036,10.497171048557263
946374.9164254704,-7.135652,6.9896846,-0.43311638,9.998040311541331
946393.0,-8.683864,6.535032,1.0576653,10.91946853552608
946410.749276411,-6.2430973,5.061001,1.4883888,8.173450693509672
946428.8328509406,-6.893968,8.097601,-0.87580436,10.670753020158417
946446.9164254704,-8.037778,6.9131117,1.4596739,10.70175856802526
946465.0,-4.891104,2.763809,0.57429796,5.647243280943116
946483.749276411,-9.172017,9.2988405,0.06221561,13.061324637067136
946501.8328509406,-5.0394645,6.6211767,0.3278284,8.327283758779313
946519.9164254704,-8.461323,5.0873227,1.4477094,9.978511996841647
946538.0,-5.5802617,9.250982,-0.110073775,10.804263271540252
946555.749276411,-7.1236873,6.7791085,-1.7013576,9.979872268021836
946573.8328509406,-6.4728165,4.737958,3.0294216,8.57455507201294
946591.9164254704,-7.525696,3.3931437,2.029186,8.501007015398923
946610.0,-7.9875274,6.140202,2.474267,10.374231140371018
946627.749276411,-6.1808815,3.4194658,0.6819788,7.09655814871275
946645.8328509406,-6.4728165,7.6620917,-0.84708947,10.065910948943769
946663.9164254704,-6.5206747,5.7645154,0.89494765,8.749272406108851
946682.0,-8.1119585,4.819317,1.4596739,9.547792150364002
946699.749276411,-7.0901866,7.3199058,1.1462029,10.255025501268225
946717.8328509406,-7.8319883,6.420172,2.3139422,10.388117141516153
946735.9164254704,-6.0492716,3.0078855,3.5295393,7.622250962932229
946754.0,-7.1954746,8.2124605,-3.7592585,11.547787089010935
946772.749276411,-5.398401,5.5252247,0.571905,7.745832212959178
946790.8328509406,-7.0136137,5.4797597,1.4429235,9.016682967112907
946808.9164254704,-6.4225655,7.7219143,-0.4091873,10.052101387511769
946827.0,-7.243333,7.810452,1.849718,10.811590543149375
946844.749276411,-8.951869,7.530482,-0.023929082,11.698063529766385
946862.8328509406,-6.9466124,6.633141,0.9667349,9.653422177062017
946880.9164254704,-8.485252,8.552254,-1.2634555,12.113499485470754
946899.0,-6.5469966,6.5709257,-0.021536173,9.275812247026108
946916.749276411,-7.0447216,8.17896,-0.06460852,10.794797976987024
946934.8328509406,-6.5278535,7.159581,1.9693633,9.886903621478776
946952.9164254704,-7.4036574,5.6999073,2.1249025,9.582186428977172
946971.0,-8.0306,6.8843966,2.0028641,10.765543066151395
946988.749276411,-7.104544,4.1564813,0.33500713,8.237907017097033
947006.8328509406,-7.1284733,4.7834234,2.0890088,8.835169991514475
947024.9164254704,-7.37255,6.544604,-1.0600582,9.915142883826901
947043.0,-7.444337,5.199789,1.1294526,9.150498466735938
947061.749276411,-7.4371586,6.882004,-0.42833054,10.141832879172613
947079.8328509406,-7.97317,4.2234826,2.5125535,9.366011435598667
947097.9164254704,-7.441944,5.441473,1.8592896,9.404739056748634
947116.0,-7.836774,6.2861695,0.48336744,10.058061333669546
947134.749276411,-7.6261983,6.489567,0.20339718,10.01572517450653
947152.8328509406,-7.7817373,5.4031863,1.5482116,9.599313348208481
947170.9164254704,-8.200496,5.592226,1.6343563,10.059435709643045
947189.0,-7.1691527,6.9729342,0.46661708,10.011807693558374
947206.749276411,-6.9346476,7.370157,1.5745336,10.241469992064797
947224.8328509406,-6.6474986,7.418015,-0.14357449,9.961766801697664
947242.9164254704,-6.9848986,6.506317,0.9404129,9.591941710584848
947261.0,-6.389065,7.29837,0.7896597,9.73190210970749
947278.749276411,-8.032992,7.138045,-0.6484781,10.765740603426622
947296.8328509406,-7.3294773,6.980113,-0.36372203,10.127956787975135
947314.9164254704,-6.929862,6.848503,0.7106937,9.768831363846584
947333.0,-7.697985,7.032757,0.60301286,10.444245716690094
947351.749276411,-7.025578,5.9726987,0.39004403,9.229518424078492
947369.8328509406,-15.635262,-0.13400285,38.87997,41.90622199355786
947387.9164254704,-13.960226,11.507495,-0.52165395,18.099239597001077
947406.0,-6.1808815,1.6343563,-2.3043704,6.7959208038931775
947423.749276411,-9.621883,5.527618,-5.757337,12.501284836015136
947441.8328509406,-0.93802,3.902833,22.703913,23.05601120007227
947459.9164254704,-16.776678,12.177509,-1.7372513,20.803045263617456
947478.0,-9.832459,2.9025974,5.42233,11.597585278068351
947495.749276411,-13.807079,4.2091255,5.2883267,15.372656480677767
947513.8328509406,-13.0581,0.13639577,-12.299547,17.939103540068075
947531.9164254704,-3.2734983,9.28209,-0.79205257,9.874225699357217
947550.0,-28.468428,21.646246,9.664956,37.046224276782056
947568.749276411,-19.298803,15.28829,14.185159,28.414685361836934
947586.8328509406,5.5826545,8.990156,12.093758,16.07009392422055
947604.9164254704,-22.859451,11.794644,-0.234505,25.723979468642913
947623.0,-21.3926,2.864311,6.489567,22.538014378205773
947640.749276411,3.0102785,25.072891,-2.2517266,25.35314403435185
947658.8328509406,-32.459797,14.063121,1.3687434,35.40174080517642
947676.9164254704,-8.913583,4.6661706,0.2392908,10.063914251083322
947695.0,-1.5290682,5.340971,-1.4812101,5.749609042659705
947712.749276411,-13.893225,3.5391111,-6.956184,15.935353906349999
947730.8328509406,15.5754385,-9.511809,11.648677,21.65087690533786
947748.9164254704,-11.275383,11.296919,-8.815474,18.23368373461397
947767.0,-3.0964231,5.3194346,-16.027699,17.168906654545353
947784.749276411,-0.27279153,5.211754,-8.49961,9.973974389753351
947802.8328509406,0.6556568,7.4563017,-4.1301594,8.548949499805078
947820.9164254704,7.2241898,-8.47568,-5.180646,12.28271805042109
947839.0,-4.170839,18.001848,13.498395,22.8838173597643
947857.749276411,-14.824065,18.023384,15.721406,28.13819256015775
947875.8328509406,1.9406484,6.271812,-13.41225,14.9328561246088
947893.9164254704,-13.574967,8.425429,19.791742,25.435814008592175
947912.0,0.3517575,8.937511,-4.3885937,9.963061320578477
947929.749276411,-5.989449,-1.0624512,8.332106,10.31631195104231
947947.8328509406,8.624041,-1.7085364,9.308413,12.803895203350228
947965.9164254704,-18.482822,7.0351496,-5.8698034,20.629169419361403
947984.0,-1.0313433,9.143302,-0.96194905,9.251431588703166
948001.749276411,-7.341442,4.034443,19.327518,21.064815522570736
948019.8328509406,-6.5781045,12.47423,-11.1294155,17.965014953443834
948037.9164254704,-8.025814,15.058571,-9.751101,19.65345317334432
948056.0,6.0038066,-10.519224,8.939904,15.053957977276129
948073.749276411,-11.462029,-7.0638647,19.372984,23.5921343324635
948091.8328509406,-12.668056,5.206968,15.7908,20.90314625151343
948109.9164254704,-22.823557,-3.7951522,-8.066493,24.50278032535212
948128.0,-17.762556,6.5493894,17.662054,25.89113841963857
948146.749276411,-45.367146,1.2323477,10.172253,46.509905914063296
948164.8328509406,-20.732155,6.164131,10.6771555,24.120953785046858
948182.9164254704,-9.916211,12.928883,-3.1490672,16.595296937817228
948201.0,-8.896832,30.023817,6.4608517,31.97383010487023
948219.749276411,32.96231,0.9093051,10.873374,34.72133318933566
948237.8328509406,28.410997,-0.1172525,-8.571397,29.676039917994014
948255.9164254704,1.225169,11.811395,-7.5639825,14.079201759506548
948274.0,-37.70505,16.747963,-5.4797597,41.61962069170757
948291.749276411,-5.963127,20.677118,1.691786,21.58620467506618
948309.8328509406,24.740276,13.936296,11.244275,30.540715823821436
948327.9164254704,0.6748001,36.44399,-0.4115802,36.45256041152791
948346.0,-42.63205,15.051392,17.843916,48.604952695741
948363.749276411,-9.440022,-12.038721,12.735057,19.90543884142156
948381.8328509406,-5.180646,1.87604,-7.63577,9.416135223743126
948399.9164254704,-11.586461,7.530482,7.0471144,15.511803861045058
948418.0,4.2282686,14.814494,-2.7494514,15.649503852542544
948436.749276411,-36.357845,-5.398401,16.690535,40.368423117420015
948454.8328509406,11.380671,-4.419701,7.7697725,14.471447544782734
948472.9164254704,-33.83811,11.268204,-3.0007067,35.79098141232147
948491.0,14.268911,-7.161974,11.93104,19.931016235611192
948508.749276411,-47.556656,5.4247227,17.54241,50.978419893934834
948526.8328509406,0.21296883,5.1423593,-4.6757426,6.953544689890388
948544.9164254704,-28.52825,-0.7202653,13.488823,31.564666576572815
948563.0,-8.793938,7.267262,-15.9774475,19.632250791484513
948580.749276411,14.115765,5.0274997,18.03774,23.449747100476905
948598.8328509406,-41.839996,11.813787,22.962345,49.16726671740468
948616.9164254704,24.450735,3.5630403,-14.21866,28.507963631505657
948635.0,-4.3120203,-5.211754,-2.706379,7.285628738535137
948653.749276411,-32.517227,13.0916,-14.369413,37.884562453512615
948671.8328509406,-1.4381378,20.095642,10.299076,22.62684322166327
948689.9164254704,17.133223,1.5482116,2.3019776,17.356364550129886
948708.0,-58.513783,3.6396132,25.316967,63.85967744434505
948725.749276411,-1.0026284,25.431828,-18.923117,31.715414172382484
948743.8328509406,2.835596,-25.620867,-2.94567,25.945065084824993
948761.9164254704,6.6522846,7.473052,11.110272,14.951171877417675
948780.0,-37.690697,-8.971012,5.1878247,39.08940037616186
948797.749276411,-25.838621,28.432533,3.9195836,38.618731252788706
948815.8328509406,9.061943,25.537115,-12.665663,29.911236562336285
948833.9164254704,9.162445,-15.089679,6.24549,18.725783188992818
948852.0,-7.3510137,-6.2813835,-2.342657,9.948930742110377
948869.749276411,-58.477886,5.936805,20.99059,62.414050286655176
948887.8328509406,-41.39731,26.197557,19.258123,52.63957227682875
948905.9164254704,-6.3938503,39.39684,-13.125101,42.01500446155648
948924.0,11.241882,15.465365,-10.452223,21.790052572834192
948942.749276411,38.942184,-18.047314,0.9786994,42.93200542509064
948960.8328509406,26.094664,-5.860232,12.493373,29.51877669016535
948978.9164254704,-10.021499,-16.33399,24.36459,30.997788911391744
948997.0,-60.93062,4.7547083,22.653662,65.1792613230062
949014.749276411,-45.44611,-4.974856,-3.4673238,45.84888701688278
949032.8328509406,-34.108513,16.286133,-1.509925,37.82735333948812
949050.9164254704,-31.414097,25.357647,-8.540289,41.26490382765407
949069.0,-14.278482,-6.905933,12.86906,20.424976477548586
949086.749276411,-9.832459,16.018127,12.294762,22.459270139776446
949104.8328509406,-3.7807949,17.020756,-7.1260805,18.835646210838696
949122.9164254704,-3.2687125,13.038957,-0.92605543,13.474288838930896
949141.0,1.1773108,14.838423,-5.5754757,15.894992517394154
949159.749276411,13.82383,16.771893,-7.37255,22.951016626172553
949177.8328509406,12.713521,37.38919,-9.839638,40.69893881963736
949195.9164254704,22.371298,28.903936,-13.615647,39.00382460381942
949214.0,15.757299,-6.357957,-9.935354,19.683174238281946
949232.749276411,3.1466742,-6.9394336,-5.0921082,9.164434686889413
949250.8328509406,4.730779,23.527073,-1.1797037,24.026966823008763
949268.9164254704,14.740314,34.701954,-3.436216,37.8590814552515
949287.0,12.711128,20.8518,-23.732862,34.053180130252564
949304.749276411,0.93084127,27.953953,-17.953989,33.23605985685224
949322.8328509406,12.596269,-0.96434194,-9.574025,15.85111676817217
949340.9164254704,0.8997334,34.728275,-0.6580497,34.74615999034095
949359.0,-11.562531,16.731213,16.558924,26.226390823273913
949376.749276411,-3.984192,42.64162,-3.5821834,42.976895886377136
949394.8328509406,-21.150915,21.773071,-13.979369,33.419314531366844
949412.9164254704,-32.952736,17.73384,-15.628083,40.55377749712331
949431.0,-39.023544,10.650834,-21.509851,45.81430935043868
949448.749276411,-36.13052,-10.437865,29.987925,48.10030298276976
949466.8328509406,-55.55854,-6.831753,31.488277,64.22566312941687
949484.9164254704,-39.772526,2.108152,7.6955924,40.565012901054494
949503.0,-24.93171,0.05025107,11.19881,27.331411125484102
949521.749276411,-2.88824,-19.32034,19.609882,27.67968460924228
949539.8328509406,5.826731,-5.4797597,13.962619,16.09140422260488
949557.9164254704,20.418684,-24.797707,-3.4553592,32.307714805456754
949576.0,29.346624,-15.84823,-12.187081,35.50937450351438
949593.749276411,17.288761,-3.7640445,0.67240715,17.70653606125355
949611.8328509406,13.718542,26.76707,-4.3622713,30.392496473397305
949629.9164254704,4.5704546,31.777819,-16.39142,36.04715641023328
949648.0,-23.560574,11.65107,1.2897775,26.315615237989064
949665.749276411,-31.8855,19.92096,12.797273,39.71523578940617
949683.8328509406,-37.57105,26.508636,4.625491,46.21349097043067
949701.9164254704,-34.792885,13.773579,-14.223446,40.03202144792818
949720.0,-50.705723,-12.9599905,6.949005,52.79507902449664
949737.749276411,-4.505846,-2.3594074,17.401228,18.129318447279665
949755.8328509406,-10.019106,-6.350778,6.2813835,13.422765919086581
949773.9164254704,10.784837,-9.916211,-19.066692,24.045429784804305
949792.0,11.569711,-19.585953,-5.2763624,23.35182578981489
949810.749276411,18.607254,-16.384241,5.1184306,25.315441658671755
949828.8328509406,21.495493,28.37989,2.0124357,35.6584390175984
949846.9164254704,22.254045,34.9221,-11.12463,42.87835094670648
949865.0,4.5895977,38.76511,-13.304569,41.24087434373459
949882.749276411,-20.229645,36.546886,0.16989647,41.77250624434138
949900.8328509406,-41.081448,11.342384,3.1634245,42.73572626207914
949918.9164254704,-47.745697,-11.648677,8.865725,49.93940666089018
949937.0,-25.168608,0.03828653,7.1141157,26.15474979251436
949954.749276411,-49.9711,-1.8688612,19.10737,53.53218719342379
949972.8328509406,-7.5209103,-14.364627,10.760908,19.46031195983865
949990.9164254704,16.137772,-18.296175,5.7118716,25.056000916536853
950009.0,21.931004,-2.8523464,-13.443357,25.881048353246012
950027.749276411,29.504557,20.930767,-7.810452,37.00836461421718
950045.8328509406,-1.2610626,26.111414,-21.63189,33.93132601199981
950063.9164254704,-14.429235,16.310062,-15.462972,26.708134494978356
950082.0,-36.6426,0.7872668,10.945162,38.25044437625041
950100.749276411,-33.816578,1.0480938,17.082972,37.90102083844796
950118.8328509406,-20.03582,17.004005,8.784366,27.708037735184007
950136.9164254704,-23.964975,-13.771186,13.139459,30.60410059795749
950155.0,22.46462,-26.180807,-17.006397,38.46181672564698
950172.749276411,0.16032484,-18.970976,13.345248,23.195242586108062
950190.8328509406,15.881731,17.43712,-10.0334635,25.631092900159235
950208.9164254704,7.037543,44.24487,11.579282,46.273267708573094
950227.0,-23.87165,25.793156,10.593404,36.70644055843677
950244.749276411,-18.994904,32.581837,-3.0964231,37.84138364645244
950262.8328509406,-44.575092,3.101209,-7.37255,45.286982871158955
950280.9164254704,2.5484471,-11.210774,5.2213254,12.626886996930779
950299.0,19.327518,-3.8071167,1.196454,19.735211977119956
950317.749276411,28.406212,-8.693435,-13.565396,32.65744418849989
950335.8328509406,27.360512,2.7877378,-6.6259627,28.2890876601824
950353.9164254704,-4.455595,19.99514,-1.5386399,20.543255904687964
950372.0,-8.509181,19.258123,-14.240196,25.417801732099218
950389.749276411,-41.67728,0.9404129,7.5950904,42.37411288516916
950407.8328509406,-35.66869,-1.0122001,19.05712,40.45310640795018
950425.9164254704,-27.805592,-7.7123427,19.705599,34.94197773941121
950444.0,10.07175,-14.637419,0.6293348,17.778927001778033
950461.749276411,22.421549,12.976741,1.4213874,25.94498041397142
950479.8328509406,24.70199,23.070026,-8.169388,34.77288181752154
950497.9164254704,-2.0961876,46.17116,8.071279,46.91817944993001
950516.0,-24.929316,33.603607,7.697985,42.54329762369779
950533.749276411,-67.09953,-6.661856,26.475136,72.44073493418004
950551.8328509406,-27.549551,2.0746512,-4.4173083,27.978465835719287
950569.9164254704,9.765458,-1.0050215,5.6903353,11.346988763176439
950588.0,23.737648,-4.393379,12.40005,27.13925112474633
950606.749276411,14.627847,15.250003,-8.155031,22.650409046336865
950624.8328509406,-9.727171,34.764168,-3.4481807,36.26368958800686
950642.9164254704,-31.007303,27.25283,2.108152,41.33538299323974
950661.0,-33.76872,-1.6606783,4.8647823,34.157728403406516
950678.749276411,2.8738825,-19.41845,6.250276,20.601003643086962
950696.8328509406,32.70866,-16.276562,3.2088897,36.675330709377526
950714.9164254704,23.512714,28.257853,-23.589289,43.67846759378042
950733.0,8.04735,15.864981,-8.858545,19.872878092261473
950750.749276411,-13.077243,29.301159,-13.333283,34.746922723925046
950768.8328509406,-46.6976,-11.588854,19.63381,51.965891485756465
950786.9164254704,-32.11761,-5.5946193,32.97906,46.37304212263449
950805.0,16.590033,-22.701519,-1.1653463,28.141538547978747
950822.749276411,12.598661,-22.971918,-9.949712,28.025560555938732
950840.8328509406,13.510359,6.4441013,-9.26534,17.604055418827297
950858.9164254704,-6.43453,28.688576,-0.24646953,29.40235222661436
950877.0,-46.443954,4.187589,26.872358,53.82100323542103
950895.749276411,-62.407043,3.070101,21.576853,66.1031400278206
950913.8328509406,13.440965,-22.048256,2.4335876,25.936605047300134
950931.9164254704,20.772835,-16.314848,3.0294216,26.586882751290638
950950.0,9.5500965,2.7949166,-3.8406174,10.666126005886607
950967.749276411,9.380199,37.66437,-3.5367181,38.97564977900136
950985.8328509406,-16.922646,44.316658,2.0028641,47.48003357763501
951003.9164254704,-48.035236,15.482116,12.378513,51.964482076744694
951022.0,-25.30979,-8.296212,0.5312256,26.640097673078067
951040.749276411,31.67971,-19.346663,-17.03272,40.841289714185926
951058.8328509406,25.2045,-9.971248,-14.780993,30.87345722450845
951076.9164254704,-5.4199367,40.5574,-8.683864,41.82927088251124
951095.0,-25.36004,19.830029,-0.40679437,32.195141878890745
951112.749276411,-39.741417,16.649855,16.214346,46.038059395424455
951130.8328509406,-11.880789,-16.59721,-3.4266443,20.696918084713566
951148.9164254704,11.191631,-12.270833,2.234976,16.757716571019632
951167.0,18.786722,32.325794,-26.271738,45.695755807037095
951185.749276411,-24.61106,34.943638,-3.594148,42.89149112405103
951203.8328509406,-16.412956,39.626556,4.113409,43.087924047003625
951221.9164254704,-41.76821,3.9004402,1.3663505,41.97217785684615
951240.0,5.8458743,-12.634555,4.070337,14.504270739095935
951257.749276411,23.931475,32.744553,-4.8647823,40.84834578868314
951275.8328509406,9.487881,42.366436,-13.299783,45.407257273032315
951293.9164254704,-36.341095,23.527073,12.574732,45.081284748975136
951312.0,-24.474665,-9.487881,6.010985,26.928814556207467
951329.749276411,9.504631,-21.974075,5.989449,24.679373611892725
951347.8328509406,31.914215,8.781973,-22.665625,40.11696306401544
951365.9164254704,-25.58976,17.611803,8.710185,32.26265247159064
951384.0,-66.21177,15.668762,13.953047,69.45643317742247
951402.749276411,-24.065477,-2.574769,14.886281,28.414397418418904
951420.8328509406,25.30979,-24.773777,-2.1296883,35.48043219783246
951438.9164254704,6.6259627,34.737846,-1.4213874,35.39267817730647
951457.0,-39.896957,26.436848,19.834816,51.80824293284621
951474.749276411,-56.984715,2.5316968,10.741764,58.04354164030699
951492.8328509406,19.026012,-23.83815,7.7003784,31.45699215674999
951510.9164254704,16.709677,-11.1007,-9.038013,22.002829929863523
951529.0,-19.167194,33.98408,2.060294,39.071010105274624
951546.749276411,-32.670376,-18.832186,28.530643,47.2863858580186
951564.8328509406,6.2072034,-10.681942,12.335442,17.458418836644388
951582.9164254704,23.04849,-13.936296,10.074143,28.756592194906634
951601.0,-11.052842,18.545038,-15.489294,26.570697757432793
951618.749276411,-34.812027,13.204067,6.556568,37.804936094746175
951636.8328509406,-16.99204,-12.816416,22.021933,30.626058765423032
951654.9164254704,40.4904,-22.612982,-6.925076,46.891109228702405
951673.0,-2.060294,37.2839,-18.099957,41.49629446081042
951691.749276411,-32.902485,18.408642,-17.185865,41.434352598509534
951709.8328509406,-24.517736,2.5819478,20.53115,32.08292307957803
951727.9164254704,20.440222,-13.981762,20.425863,32.10152992193202
951746.0,8.63122,42.90963,-10.148323,44.93019881035058
951763.749276411,-35.252323,18.176529,10.069357,40.92070910648566
951781.8328509406,-42.005108,-11.481173,15.104036,46.09097888998333
951799.9164254704,31.172413,-8.028207,-1.4142087,32.22066768589027
951818.0,3.902833,38.233887,-0.89494765,38.442985730180986
951835.749276411,-45.936657,14.735528,13.443357,50.080296416893155
951853.8328509406,-40.224785,5.4199367,7.31512,41.2422116616293
951871.9164254704,6.7336435,-8.750865,2.553233,11.33307512485496
951890.0,10.746551,14.003298,0.33979294,17.654919215744908
951907.749276411,-10.638869,17.324656,6.5302463,21.35353263177221
951925.8328509406,-23.850115,7.8559175,8.85376,26.625786212197212
951943.9164254704,-17.039898,2.6393776,10.315826,20.093299978551602
951962.0,-11.62714,-3.2950344,4.8958898,13.039071025595627
951980.749276411,0.035893623,4.405344,-4.630277,6.391229084240141
951998.8328509406,-2.5340896,3.0653152,-0.78248096,4.0533990463488445
952016.9164254704,-4.393379,3.720972,-1.9502201,6.078714510558052
952035.0,-3.8836899,5.135181,-4.010514,7.585338073304248
952053.749276411,-6.855682,4.613527,1.746823,8.44608771314755
952071.8328509406,-11.749179,3.8430104,6.116273,13.792053201720117
952089.9164254704,-13.9458685,6.642713,3.0366004,15.742738840778037
952108.0,-7.9324903,7.977956,0.37807947,11.256781439788444
952125.749276411,0.49533197,8.949476,-2.4575167,9.293969161012908
952143.8328509406,-6.850896,5.726229,4.7499228,10.11366605980328
952161.9164254704,-15.477329,5.3816504,5.443866,17.266891759318383
952180.0,0.30389932,11.756357,-5.841089,13.130978844475626
952197.749276411,-5.5132604,3.2926416,1.1773108,6.528674418597956
952215.8328509406,-9.609919,9.688885,-1.7851094,13.762690554530185
952233.9164254704,-6.4967456,1.8329676,3.022243,7.3960412630554
952252.0,-11.184452,4.000942,-0.4977249,11.888954264515784
952270.749276411,-8.250747,3.543897,4.580026,10.08021181152926
952288.8328509406,-2.0626867,6.412994,-4.3024487,7.993261742400569
952306.9164254704,-10.330184,10.169859,0.33979294,14.5001445784451
952325.0,-0.09332342,4.630277,0.6293348,4.6737818357236725
952342.749276411,-7.903775,7.1476164,-3.072494,11.090459811577244
952360.8328509406,-15.020284,7.994706,0.46901,17.021874921617535
952378.9164254704,-6.5996404,2.4790528,4.8264956,8.543770594492772
952397.0,-0.08375178,6.381886,-0.16511066,6.384570839742856
952414.749276411,1.3160994,7.9061685,-5.149538,9.526665712331708
952432.8328509406,-9.966462,4.891104,-5.6113696,12.439482783623449
952450.9164254704,-8.899225,3.8573678,-1.9669704,9.896689572760074
952469.0,-11.787465,7.697985,1.2347406,14.132511756079962
952486.749276411,-14.9317465,8.04735,2.866704,17.202758133112788
952504.8328509406,-15.695085,7.97317,5.317042,18.389618501640783
952522.9164254704,-13.132279,5.5563326,1.7946811,14.371863621199617
952541.0,-7.468266,4.2976627,-1.7803236,8.798548394504872
952559.749276411,0.859054,6.2598476,-4.769066,7.91629056203079
952577.8328509406,2.6752713,3.1825678,-1.8162172,4.537009945743603
952595.9164254704,-5.5826545,4.3407354,3.4075012,7.849782131192232
952614.0,-16.386635,5.4319015,5.8937325,18.241804826016626
952631.749276411,-7.4874096,5.6424775,-4.1516957,10.253557043366799
952649.8328509406,-1.2179902,11.514674,-2.6920216,11.887733078616739
952667.9164254704,-10.473759,5.568297,4.5154176,12.692302989319147
952686.0,-9.416093,4.1804104,-5.7166576,11.782139560059324
952703.749276411,-1.562569,7.217011,-3.438609,8.145606270177991
952721.8328509406,-11.194024,7.181117,8.164602,15.605618875862278
952739.9164254704,-5.3242207,10.981055,-7.193082,14.165850614560972
952758.0,-12.830773,11.031306,2.2206187,17.06603630764785
952776.749276411,-3.771223,5.1184306,-3.6276486,7.319855810589941
952794.8328509406,-18.183708,10.323006,7.829595,22.32743261929873
952812.9164254704,4.824103,7.887025,-8.652756,12.6628322069263
952831.0,-10.452223,10.665192,2.6728783,15.170351493792221
952848.749276411,-3.4218585,4.505846,7.4371586,9.3446825420285
952866.8328509406,-1.6941789,4.0607653,-4.63267,6.38918526071903
952884.9164254704,-15.36247,11.055236,8.7053995,20.83285165240698
952903.0,-0.43550926,12.589089,-5.8674107,13.896090762798767
952920.749276411,3.4290373,-2.9265265,4.2521977,6.197099276264567
952938.8328509406,2.1942968,12.213403,-8.707792,15.159412679987414
952956.9164254704,-28.55218,6.590069,14.510594,32.69882766109509
952975.0,-24.1253,17.116472,4.2521977,29.884526081179025
952993.749276411,-10.65562,11.938218,-3.6946502,16.42296339581514
953011.8328509406,-7.135652,19.181551,-7.087794,21.6583991102099
953029.9164254704,-13.833402,14.874317,3.0748868,20.544177908665684
953048.0,-9.837245,4.3670573,7.453909,13.092109762440478
953066.749276411,-11.51228,5.099287,5.2476473,13.64086217553591
953084.8328509406,-9.760673,10.56469,-3.1442811,14.723108226351059
953102.9164254704,-13.967404,11.713285,2.5316968,18.40377430522259
953121.0,-20.583796,22.017147,-8.370393,31.281158846239602
953138.749276411,-12.948026,10.782444,-2.0507221,16.97403714621953
953156.8328509406,-18.736471,8.037778,-1.9430413,20.480152104040407
953174.9164254704,5.1423593,3.6802926,-8.303391,10.437179450924097
953193.0,3.441002,4.0248713,1.7659662,5.581999674409712
953210.749276411,-12.294762,15.532367,-0.069394335,19.809604055433898
953228.8328509406,-18.509144,9.420879,-3.3668218,21.03988739937389
953246.9164254704,2.6489491,3.3476784,-5.3385777,6.835517088205885
953265.0,-9.885103,11.115058,2.5293038,15.08831181334305
953282.749276411,-7.736272,7.942062,-1.9382555,11.25535817524739
953300.8328509406,-6.269419,9.193553,-1.3472073,11.20901417924624
953318.9164254704,-8.935119,9.243804,1.2179902,12.913859379049823
953337.0,-5.5324035,6.4177794,-2.9121692,8.959693653429522
953355.749276411,-5.4869385,7.6429486,-0.33740005,9.41461609407225
953373.8328509406,-5.2141466,7.3845143,-1.8281817,9.22283169863849
953391.9164254704,-5.1830387,7.2289753,-0.45704544,8.906787557134871
953410.0,-5.2691836,7.004042,-0.2656128,8.76877701323262
953427.749276411,-6.692964,8.47568,1.1940612,10.865482074765088
953445.8328509406,-4.453202,6.793466,0.208183,8.125609423757027
953463.9164254704,-3.4290373,6.5039244,-0.2392908,7.356397861227415
953482.0,-4.6278844,8.138281,-0.4785816,9.374325149181828
953499.749276411,-4.4986672,6.092344,-1.1988469,7.667587357202489
953517.8328509406,-7.398872,7.260083,0.7154795,10.390573754812255
953535.9164254704,-5.1423593,10.311041,0.18425392,11.523687568700083
953554.0,-5.0418572,7.98992,0.416366,9.456876137369456
953571.749276411,-7.075829,7.98992,-2.2421548,10.90566072234067
953589.8328509406,-7.7267003,7.3534064,-1.5003533,10.771515363884598
953607.9164254704,-6.2095966,7.707557,-0.75615895,9.926595650103094
953626.0,-5.8004093,9.909033,-0.78008807,11.508354375825062
953644.749276411,-4.4173083,7.50416,-1.3232782,8.807729282706418
953662.8328509406,-5.503689,6.1067014,-0.98827106,8.28004071762431
953680.9164254704,-5.934412,7.348621,-2.0148287,9.658105977764412
953699.0,-5.5443683,5.7381935,-1.067237,8.050209891900717
953716.749276411,-7.1691527,6.9633627,-1.1557746,10.060864051048187
953734.8328509406,-6.8054304,8.382357,-1.6750357,10.926277334983205
953752.9164254704,-6.432137,7.7386646,-1.3854938,10.157701966877184
953771.0,-6.8604674,7.374943,-0.6173703,10.091429199426306
953788.749276411,-6.609212,7.312727,-0.95237744,9.902761343468494
953806.8328509406,-7.037543,7.5161242,-1.3615648,10.386192428954592
953824.9164254704,-6.0181637,7.5376606,-1.9334698,9.837323167828842
953843.0,-4.345521,6.456066,-0.97152066,7.8427159422360715
953861.749276411,-5.6616206,8.188532,-0.22971918,9.957849920290435
953879.8328509406,-6.5996404,8.016242,-0.08135887,10.383737693027683
953897.9164254704,-7.1835103,5.9511623,-2.005257,9.541499284032692
953916.0,-6.692964,5.206968,-0.45943835,8.492312197262342
953933.749276411,-3.5726118,7.0183992,-0.94280577,7.931605456905
953951.8328509406,-5.647263,6.9657555,-0.107680865,8.96799443831431
953969.9164254704,-6.412994,5.6687994,-2.3976939,8.888797146947025
953988.0,-5.888947,8.054528,-0.7130866,10.003180022907344
954006.749276411,-5.9822702,8.978191,-0.11485959,10.789284642815947
954024.8328509406,-6.798252,7.6118407,-0.96434194,10.251161128131946
954042.9164254704,-5.5850477,7.001649,-0.83991075,8.99562652617603
954061.0,-6.276598,8.518753,-0.05025107,10.581463050951374
954078.749276411,-6.5924616,7.3557997,-2.1727605,10.113813690411492
954096.8328509406,-6.089951,7.6190195,-0.7657306,9.783828732942826
954114.9164254704,-5.8554463,7.6716633,-0.8518753,9.688465342225292
954133.0,-6.6259627,7.705164,-1.1462029,10.226764642674421
954151.749276411,-6.0803795,7.965991,-1.1270597,10.084557057375665
954169.8328509406,-6.1617384,7.8319883,-0.208183,9.967467130763985
954187.9164254704,-5.912876,7.080615,-0.72983694,9.25364108492379
954206.0,-6.4106007,7.4634805,-1.2084186,9.912598953934669
954223.749276411,-6.3914576,8.135887,-1.0600582,10.400341865378946
954241.8328509406,-6.487174,7.7697725,-0.80641,10.153969090761123
954259.9164254704,-6.535032,7.8463454,-1.2179902,10.28373859568694
954278.0,-6.324456,7.286405,-1.1533817,9.717033027928633
954295.749276411,-6.247883,7.4634805,-1.0839874,9.793600555410048
954313.8328509406,-6.3771,7.3294773,-1.4644598,9.825135337848092
954331.9164254704,-6.384279,7.575947,-1.1844895,9.97782574874207
954350.0,-6.345992,7.025578,-1.3137065,9.558042972611613
954367.749276411,-6.7025356,7.697985,-0.49054617,10.218786232933637
954385.8328509406,-6.6498914,8.346463,-0.5001178,10.683380460137128
954403.9164254704,-6.6307483,7.748236,-1.1485959,10.262614514398644
954422.0,-6.0397,7.803273,-0.78008807,9.89836264235077
954440.749276411,-6.3794928,7.032757,-1.119881,9.560948324327553
954458.8328509406,-6.0995226,7.4347653,-1.4285661,9.722176305543119
954476.9164254704,-5.9248405,7.362978,-1.4859959,9.56688892972742
954495.0,-5.9798775,7.1141157,-0.93084127,9.340023692578512
954512.749276411,-6.0612364,7.2840123,-0.49054617,9.488733183525497
954530.8328509406,-5.960734,6.850896,-1.0576653,9.142416622993949
954548.9164254704,-6.09713,7.341442,-1.5721406,9.671783234876202
954567.0,-6.4417086,8.1622095,-0.53840435,10.41187556847003
954584.749276411,-5.857839,6.7360363,-0.99066395,8.981641155527663
954602.8328509406,-7.1476164,7.4515157,-1.4812101,10.431082867528062
954620.9164254704,-6.7288575,7.5400534,-1.2538838,10.183425411621585
954639.0,-6.094737,7.0949726,-1.6965718,9.505935575548312
954656.749276411,-6.439316,7.209832,-0.7776951,9.698003798960073
954674.8328509406,-6.214382,7.992313,-0.35893622,10.130372448331842
954692.9164254704,-6.609212,6.932255,-1.3089207,9.667011743287452
954711.0,-6.831753,7.2194037,-1.7133222,10.086035484648837
954729.749276411,-6.2837768,7.212225,-1.4596739,9.676398514797976
954747.8328509406,-6.3675284,7.2217965,-1.0433079,9.684433591409526
954765.9164254704,-6.2095966,7.2816195,-0.23211208,9.572614506768447
954784.0,-6.300527,7.85831,-1.0839874,10.130385245250437
954801.749276411,-6.7336435,7.5137315,-1.3926725,10.185168262303808
954819.8328509406,-5.9248405,7.444337,-0.8925547,9.556073577181234
954837.9164254704,-6.3914576,8.059315,-0.9571632,10.330510631776969
954856.0,-6.7599654,7.7889156,-0.7609448,10.341343018281888
954873.749276411,-6.214382,6.819788,-1.0624512,9.28745684023616
954891.8328509406,-6.6666417,7.865489,-0.75615895,10.338365689167944
954909.9164254704,-6.5230675,7.42998,-0.84230363,9.922927381325907
954928.0,-6.3435993,7.135652,-0.09332342,9.54816688190906
954946.749276411,-6.2981343,7.4826236,-0.859054,9.818050996762517
954964.8328509406,-6.101916,7.080615,-1.014593,9.402015028967462
954982.9164254704,-6.692964,8.667113,-1.0313433,10.999012858548712
955001.0,-5.9822702,6.015771,-0.5144752,8.499514233276162
955019.749276411,-6.4608517,9.291662,-1.3065279,11.39230453267096
955037.8328509406,-6.544604,5.9990206,-0.45225963,8.889579767850002
955055.9164254704,-6.2622404,9.119372,-1.6080343,11.178746567113535
955074.0,-5.391222,4.9868207,0.088537596,7.344487337666118
955091.749276411,-6.7097144,10.200967,-0.30150643,12.2135539951313
955109.8328509406,-6.5781045,6.843717,1.4429235,9.60155973870191
955127.9164254704,-6.645106,8.657541,-1.2084186,10.980470182589768
955146.0,-6.2239537,9.839638,-0.7441944,11.666614801894294
955163.749276411,-3.0581365,3.6061125,0.32064968,4.739099327147787
955181.8328509406,-7.291191,11.65107,-0.5360114,13.754861197566154
955199.9164254704,-6.5182815,6.7145,2.6250203,9.719219903811949
955218.0,-3.9100118,4.453202,0.37568656,5.938041825409104
955236.749276411,-8.954262,11.098308,-1.1007377,14.302547741983219
955254.8328509406,-7.391693,8.633613,1.8784329,11.519761672874157
955272.9164254704,-7.748236,5.4199367,0.86862564,9.495545558111356
955291.0,-5.649656,5.1662884,-0.24407662,7.659551040807887
955308.749276411,-6.78868,6.848503,0.5240469,9.657266416373146
955326.8328509406,-6.9155045,8.918368,0.2967206,11.289354870293014
955344.9164254704,-7.4850163,8.368,1.2323477,11.29458161531276
955363.0,-8.425429,7.731486,1.4692456,11.529198247725484
955380.749276411,-5.123216,6.5781045,0.08135887,8.338190466840148
955398.8328509406,-5.29072,6.219168,0.6006199,8.18721643752625
955416.9164254704,-7.3821216,8.44218,0.46901,11.224352669516694
955435.0,-7.1643667,8.219639,0.0598227,10.903861437941387
955452.749276411,-7.8008804,7.8798466,-0.0071787243,11.088091314050326
955470.8328509406,-7.7003784,8.233996,1.0385221,11.321353531419772
955488.9164254704,-7.63577,8.068886,0.97152066,11.151491253043371
955507.0,-6.9609694,7.839167,0.9858781,10.529937790399568
955525.749276411,-7.348621,7.080615,1.3424214,10.292688404641614
955543.8328509406,-7.65252,6.7097144,1.4859959,10.285402933030099
955561.9164254704,-7.348621,6.7910733,1.014593,10.057350850162427
955580.0,-6.7360363,6.6498914,0.5623334,9.482165339175815
955597.749276411,-6.4177794,6.252669,-0.0598227,8.960320351754207
955615.8328509406,-6.5039244,6.089951,0.16271774,8.911510132756797
955633.9164254704,-6.587676,6.094737,0.071787246,8.974878694936956
955652.0,-6.855682,6.1569524,0.5312256,9.229877527848629
955669.749276411,-7.049507,6.2359185,0.46901,9.423491861395714
955687.8328509406,-7.5568037,6.3124914,0.34457877,9.852490262067878
955705.9164254704,-7.808059,6.8580747,0.30389932,10.396697972671783
955724.0,-7.341442,7.025578,0.23211208,10.164122829399984
955741.749276411,-5.0083566,5.6568346,0.25604117,7.55969381689865
955759.8328509406,-8.681471,6.956184,-1.4764243,11.222132742011542
955777.9164254704,-8.353642,5.7381935,-0.8542682,10.1705444035773
955796.0,-8.334499,4.7451367,-1.1318455,9.657187484902533
955814.749276411,-8.994942,5.053822,-1.1294526,10.379102156096874
955832.8328509406,-8.451752,4.936569,-0.8734115,9.826732570371357
955850.9164254704,-8.746079,4.9317837,-0.18903974,10.042515838231273
955869.0,-8.19571,5.022714,-0.16750357,9.613811719388869
955886.749276411,-7.942062,5.2572193,0.54079723,9.539767566566397
955904.8328509406,-7.939669,5.355328,0.34936458,9.583315575879967
955922.9164254704,-8.724543,5.723836,0.46661708,10.444983514256627
955941.0,-7.891811,5.8937325,0.75615895,9.878691208806071
955959.749276411,-9.239018,5.9296265,-0.1483603,10.97915911226549
955977.8328509406,-8.547467,5.8698034,-0.6460852,10.38899466533695
955995.9164254704,-8.308177,4.941355,0.22493336,9.66919796652209
956014.0,-8.918368,5.7501583,-0.27279153,10.61489630082756
956031.749276411,-8.0114565,5.123216,0.22971918,9.512284075641775
956049.8328509406,-9.19116,5.3002915,-0.4402951,10.61905701583979
956067.9164254704,-8.334499,4.819317,0.021536173,9.62757257745884
956086.0,-9.710421,4.7977805,0.60301286,10.847792320686576
956104.749276411,-7.8630958,4.3862004,-0.5336185,9.019522061200362
956122.8328509406,-9.703242,5.865018,-0.6006199,11.353945821394605
956140.9164254704,-8.736507,4.55849,1.0504867,9.91009121794678
956159.0,-8.626433,4.635063,-0.7130866,9.818739624644172
956176.749276411,-8.243568,5.0203214,-0.052643977,9.652088464070163
956194.8328509406,-8.348856,5.21654,-0.34936458,9.85077365946932
956212.9164254704,-8.815474,5.3960075,0.13400285,10.336703321104867
956231.0,-8.255533,4.4890957,0.5695121,9.414358679692096
956248.749276411,-8.17896,5.573083,0.0,9.897203686218093
956266.8328509406,-8.815474,4.139731,-0.19382556,9.74102268474652
956284.9164254704,-7.386907,4.8599963,0.8231604,8.880515306376699
956303.0,-7.733879,4.6542063,-0.77290934,9.05935480690871
956320.749276411,-8.772401,3.5845764,1.5075321,9.59566883050725
956338.8328509406,-8.473288,4.843246,1.0863802,9.820074505135489
956356.9164254704,-7.808059,5.9990206,0.110073775,9.847139165394593
956375.0,-7.887025,4.9844275,1.4740313,9.445763554459795
956393.749276411,-8.035385,6.477602,0.004785816,10.32118029455274
956411.8328509406,-8.317748,5.577869,-0.46661708,10.025731188896534
956429.9164254704,-7.592697,6.0540576,0.2392908,9.713800556161909
956448.0,-6.774323,6.276598,-0.18664683,9.23698931476496
956465.749276411,-7.9324903,6.3172774,-1.4620669,10.245488554882117
956483.8328509406,-7.867882,6.506317,0.26082698,10.21292116800619
956501.9164254704,-7.9133472,5.903304,0.0071787243,9.872695354271112
956520.0,-8.296212,5.573083,1.2682413,10.07446393952843
956537.749276411,-8.552254,5.549154,2.0411506,10.397136835115345
956555.8328509406,-8.229211,5.448652,1.7300725,10.0200236104952
956573.9164254704,-8.348856,5.4007936,0.28236315,9.947446756178937
956592.0,-7.9300976,5.5443683,1.0648441,9.734493348339988
956610.749276411,-8.166995,6.0779867,-1.4405307,10.281870372312829
956628.8328509406,-7.647734,5.1375737,0.5599405,9.230169674563298
956646.9164254704,-8.341678,3.4075012,-0.6652284,9.035329828393206
956665.0,-8.547467,6.1282377,-0.42354473,10.52586716437658
956682.749276411,-7.748236,6.3388133,-0.677193,10.033658630988095
956700.8328509406,-8.217246,7.0590787,-0.19143265,10.83468367682212
956718.9164254704,-8.695828,3.7784019,3.9124048,10.25673714407124
956737.0,-8.420644,5.305077,0.6101916,9.971129381337681
956754.749276411,-8.865725,5.697514,-1.6989647,10.674700305285722
956772.8328509406,-8.332106,5.484545,1.0839874,10.033905168757563
956790.9164254704,-8.080851,5.4199367,0.911698,9.772771355117845
956809.0,-7.681235,5.652049,-0.4498667,9.54721996559181
956826.749276411,-7.2576904,5.8985186,0.3804724,9.3600935285904
956844.8328509406,-9.136123,7.2002606,-3.0246358,12.019189569254783
956862.9164254704,-9.033228,5.3505425,1.5003533,10.605591599204221
956881.0,-8.368,5.6352987,0.023929082,10.08863657979546
956899.749276411,-8.942298,5.5850477,-0.72744405,10.568189351916423
956917.8328509406,-9.15048,4.9652843,0.51208234,10.423414063212032
956935.9164254704,-8.1119585,5.7381935,0.055036888,9.936486522317898
956954.0,-9.260554,7.0949726,0.067001425,11.666232715517841
956972.749276411,-7.896597,5.802802,0.33740005,9.805232991895348
956990.8328509406,-7.3534064,6.2789907,0.2057901,9.671642024987559
957008.9164254704,-7.5448394,6.556568,0.63412064,10.015752318048323
957027.0,-8.396714,5.2500405,1.0528796,9.958729171010345
957044.749276411,-8.619255,7.4898024,-2.3115492,11.650405849157849
957062.8328509406,-7.7386646,3.9650488,0.71787244,8.724900149445043
957080.9164254704,-7.9635983,4.637456,1.0433079,9.274340268175484
957099.0,-8.714972,6.221561,0.234505,10.710441206249628
957116.749276411,-8.018635,5.8626246,-0.7154795,9.958955034473767
957134.8328509406,-7.370157,5.4869385,-0.1172525,9.189094430692695
957152.9164254704,-7.8200235,4.398165,0.70112205,8.999344144812634
957171.0,-8.382357,4.76428,-0.68915755,9.666292511742599
957189.749276411,-7.8989897,5.061001,-2.1512244,9.62473562347883
957207.8328509406,-7.8702745,6.1378093,-1.5936768,10.107112814813881
957225.9164254704,-7.8559175,5.8961253,-0.5072965,9.83550115952505
957244.0,-8.076065,6.2287397,-0.55754757,10.21424903883756
957261.749276411,-7.7147355,4.905462,-0.46661708,9.154148391180469
957279.8328509406,-8.145459,5.647263,-1.1581675,9.979049737821043
957297.9164254704,-7.860703,5.278755,-0.40679437,9.477414608620734
957316.0,-8.245961,5.1638956,-1.5482116,9.851834841266621
957333.749276411,-8.231604,5.329006,-0.84230363,9.84210774000992
957351.8328509406,-8.470895,5.2452545,-0.5695121,9.979634307069658
957369.9164254704,-8.286641,5.4295087,-2.1440456,10.136316654541531
957388.0,-8.348856,5.1758604,-0.52165395,9.836922803019995
957405.749276411,-7.942062,4.457988,-0.30629224,9.112838238236879
957423.8328509406,-8.233996,5.125609,-0.66044265,9.721457824978515
957441.9164254704,-8.698221,5.4582233,-1.9741492,10.456984040408809
957460.0,-8.612076,5.329006,-1.1820966,10.19624981792539
957478.749276411,-8.461323,4.8025665,-0.22014755,9.731757130190942
957496.8328509406,-8.300998,5.0657864,-0.69872916,9.74971702591738
957514.9164254704,-8.406286,5.3385777,-0.8566611,9.994994968132124
957533.0,-8.700614,5.099287,-1.1581675,10.151096681808387
957550.749276411,-7.965991,4.587205,-0.18664683,9.19425360555467
957568.8328509406,-7.860703,4.7092433,-0.5240469,9.178357656258743
957586.9164254704,-8.420644,5.0442505,-0.5551547,9.831576944845539
957605.0,-8.700614,5.5611186,-0.7776951,10.355265990249887
957622.749276411,-8.494823,5.135181,-0.5814767,9.943350383886353
957640.8328509406,-7.8822393,5.003571,-0.56711924,9.353450880123532
957658.9164254704,-8.79633,5.821945,-0.72505116,10.573370523940904
957677.0,-8.217246,5.3744717,-0.92605543,9.862335247701195
957695.749276411,-8.329713,5.1950035,-1.2012398,9.890154553114188
957713.8328509406,-8.425429,5.3313994,-0.571905,9.986928893578163
957731.9164254704,-8.389536,5.1471453,-0.93802,9.887229164685529
957750.0,-8.334499,5.1686816,-0.8231604,9.8415819921041
957767.749276411,-8.308177,4.979642,-0.33740005,9.69208327993693
957785.8328509406,-8.411072,5.1926107,-0.90691215,9.926319948437897
957803.9164254704,-8.348856,5.2500405,-0.8542682,9.899297748724779
957822.0,-8.358428,5.2428617,-0.6676214,9.889218157683086
957839.749276411,-8.300998,5.2021823,-0.70112205,9.821447989346249
957857.8328509406,-8.320142,5.254826,-0.6867646,9.864563082379938
957875.9164254704,-8.265104,5.2978983,-0.53840435,9.832067421049238
957894.0,-8.322535,5.343364,-0.66283554,9.912390156557
957911.749276411,-8.32732,5.29072,-0.70112205,9.890780991903329
957929.8328509406,-8.312963,5.309863,-0.7609448,9.893383440804518
957947.9164254704,-8.360821,5.398401,-0.6556568,9.973762930320143
957966.0,-8.312963,5.3242207,-0.83991075,9.907478486963424
957984.749276411,-8.320142,5.285934,-0.70830077,9.882689468626573
958002.8328509406,-8.303391,5.410365,-0.6580497,9.932340154252476
958020.9164254704,-8.300998,5.343364,-0.77290934,9.902297484945564
958039.0,-8.193317,5.2955055,-0.6197632,9.775322418574925
958057.749276411,-8.231604,5.448652,-0.6197632,9.890966558127383
958075.8328509406,-8.217246,5.436687,-0.5623334,9.868987598190634
958093.9164254704,-8.217246,5.4893312,-0.46901,9.893222893875858
958112.0,-8.222033,5.5252247,-0.52165395,9.919781120676488
958129.749276411,-8.229211,5.467795,-0.53840435,9.894775140883441
958147.8328509406,-8.260319,5.467795,-0.650871,9.927400727402265
958165.9164254704,-8.217246,5.3816504,-0.81119585,9.85613167319681
958184.0,-8.2124605,5.3768644,-0.8351249,9.851528401149114
958201.749276411,-8.222033,5.3960075,-0.7657306,9.86433307147126
958219.8328509406,-8.32732,5.4510446,-0.6843717,9.976297421255547
958237.9164254704,-8.281855,5.443866,-0.66283554,9.932982946731968
958256.0,-8.25314,5.410365,-0.677193,9.891661116924396
958274.749276411,-8.293819,5.3218274,-0.7346228,9.881748384695474
958292.8328509406,-8.267497,5.343364,-0.8351249,9.879295474886103
958310.9164254704,-8.260319,5.329006,-0.7489802,9.858607724713924
958329.0,-8.214853,5.360114,-0.6748001,9.832089659861987
958346.749276411,-8.222033,5.3577213,-0.6556568,9.835491346188503
958364.8328509406,-8.296212,5.360114,-0.7106937,9.90267848499383
958382.9164254704,-8.262712,5.4031863,-0.7489802,9.900899107022742
958401.0,-8.2028885,5.372079,-0.72744405,9.832384622844737
958418.749276411,-8.193317,5.367293,-0.81358874,9.828540290815967
958436.8328509406,-8.210068,5.355328,-0.74658734,9.830673792190252
958454.9164254704,-8.245961,5.3505425,-0.7418015,9.85771004459096
958473.0,-8.217246,5.3816504,-0.72505116,9.849415822116228
958490.749276411,-8.205282,5.3768644,-0.832732,9.845342353587068
958508.8328509406,-8.243568,5.372079,-0.7705164,9.869617098729512
958526.9164254704,-8.193317,5.379257,-0.69872916,9.826244031855321
958545.0,-8.176567,5.412758,-0.7657306,9.835676917418006
958563.749276411,-8.135887,5.42233,-0.77530223,9.807926052612345
958581.8328509406,-8.1622095,5.3505425,-0.8040171,9.792671365020318
958599.9164254704,-8.332106,5.259612,-0.8734115,9.891933907690257
958618.0,-8.356035,5.23329,-0.9547703,9.905666634360713
958635.749276411,-8.432608,5.2883267,-1.0026284,10.004026223280478
958653.8328509406,-8.308177,5.2691836,-0.885376,9.87795482553013
958671.9164254704,-8.238783,5.3649,-0.86862564,9.86986361777884
958690.0,-8.289034,5.491724,-0.90691215,9.98446827793797
958707.749276411,-8.322535,5.446259,-0.8614469,9.98340706787145
958725.8328509406,-8.222033,5.340971,-0.8925547,9.84502167435004
958743.9164254704,-8.133494,5.3313994,-0.8710185,9.76402670201688
958762.0,-8.238783,5.391222,-0.81119585,9.879314686830774
958779.749276411,-8.2028885,5.379257,-0.7872668,9.840913302629156
958797.8328509406,-8.317748,5.317042,-0.7968384,9.904080919347466
958815.9164254704,-8.315355,5.2572193,-0.9475916,9.883390783769913
958834.0,-8.329713,5.2141466,-0.8925547,9.86752741679255
958852.749276411,-8.289034,5.1973963,-0.8518753,9.820728306961747
958870.8328509406,-8.363214,5.1878247,-0.9140909,9.883948386206237
958888.9164254704,-8.341678,5.2931128,-0.8518753,9.91596321574248
958907.0,-8.368,5.3026843,-0.7657306,9.936207935487404
958924.749276411,-8.293819,5.2691836,-0.8351249,9.861499024685342
958942.8328509406,-8.418251,5.2524333,-0.93084127,9.966015800704167
958960.9164254704,-8.346463,5.2500405,-0.8829831,9.899799443266255
958979.0,-8.31057,5.2476473,-0.8614469,9.866380626735262
958997.749276411,-8.308177,5.278755,-0.8446966,9.879502606882877
959015.8328509406,-8.391929,5.278755,-0.90691215,9.9555118572017
959033.9164254704,-8.401501,5.2524333,-0.86623275,9.946036084849203
959052.0,-8.360821,5.1519313,-0.89494765,9.861371872625087
959070.749276411,-8.391929,5.1208234,-0.8614469,9.868606557997342
959088.8328509406,-8.341678,5.173467,-0.7346228,9.843171405296813
959106.9164254704,-8.379964,5.285934,-0.7705164,9.93773567852964
959125.0,-8.461323,5.2189326,-0.87819725,9.98010394753378
959142.749276411,-8.32732,5.0633936,-0.832732,9.781393342195424
959160.8328509406,-8.308177,5.0849295,-0.8614469,9.77877312574634
959178.9164254704,-8.379964,5.1327877,-0.9188767,9.869834882325549
959197.0,-8.334499,5.2955055,-0.859054,9.911822529507237
959214.749276411,-8.308177,5.3026843,-0.66044265,9.878281750523952
959232.8328509406,-8.368,5.2955055,-0.7681235,9.932563426013575
959250.9164254704,-8.260319,5.2524333,-0.78487384,9.820231794485618
959269.0,-8.293819,5.230897,-0.7944455,9.837726397996654
959286.749276411,-8.305784,5.23329,-0.7489802,9.845524029666883
959304.8328509406,-8.320142,5.2021823,-0.8446966,9.848907346942038
959322.9164254704,-8.420644,5.2021823,-0.82076746,9.931948715159786
959341.0,-8.425429,5.1878247,-0.84708947,9.930706899418388
959359.749276411,-8.368,5.206968,-0.7992313,9.88810954752847
959377.8328509406,-8.375178,5.2691836,-0.7154795,9.920676048390714
959395.9164254704,-8.329713,5.235683,-0.7872668,9.869968802039864
959414.0,-8.34407,5.1878247,-0.7968384,9.85758493336703
959431.749276411,-8.255533,5.2189326,-0.7418015,9.79496564888484
959449.8328509406,-8.250747,5.1902175,-0.7657306,9.777501066586064
959467.9164254704,-8.286641,5.223718,-0.7394086,9.823562178973518
959486.0,-8.317748,5.266791,-0.7441944,9.87308687970365
959503.749276411,-8.329713,5.2883267,-0.7944455,9.898568664244955
959521.8328509406,-8.284247,5.2955055,-0.7154795,9.858145757314583
959539.9164254704,-8.308177,5.2261114,-0.6819788,9.838858699675914
959558.0,-8.291427,5.1423593,-0.72505116,9.783522885507185
959575.749276411,-8.363214,5.123216,-0.80162424,9.84039084663854
959593.8328509406,-8.348856,5.199789,-0.83991075,9.871507089660755
959611.9164254704,-8.356035,5.211754,-0.6867646,9.872048738410593
959630.0,-8.348856,5.2213254,-0.7992313,9.87949422350764
959648.749276411,-8.346463,5.3242207,-0.6748001,9.92300991875134
959666.8328509406,-8.403893,5.386436,-0.7154795,10.007548213846649
959684.9164254704,-8.358428,5.367293,-0.6748001,9.95622960532716
959703.0,-8.303391,5.3457565,-0.6748001,9.8984225930768
959720.749276411,-8.296212,5.281148,-0.7106937,9.860159394354014
959738.8328509406,-8.303391,5.3026843,-0.78008807,9.882980333953103
959756.9164254704,-8.293819,5.283541,-0.7657306,9.863548167633104
959775.0,-8.296212,5.2739697,-0.75615895,9.859699098001277
959792.749276411,-8.324927,5.29072,-0.703515,9.888936294109394
959810.8328509406,-8.31057,5.3313994,-0.70830077,9.899044563391103
959828.9164254704,-8.303391,5.3696856,-0.6676214,9.910880075728205
959847.0,-8.303391,5.3026843,-0.7106937,9.87774510804805
959864.749276411,-8.248354,5.3194346,-0.7968384,9.847166069926297
959882.8328509406,-8.300998,5.2524333,-0.7705164,9.853340493945282
959900.9164254704,-8.269891,5.2476473,-0.8183746,9.828460526603514
959919.0,-8.269891,5.266791,-0.703515,9.829807625014183
959937.749276411,-8.298605,5.4199367,-0.6819788,9.935172563256328
959955.8328509406,-8.305784,5.441473,-0.60779864,9.948120196859849
959973.9164254704,-8.183745,5.3768644,-0.6580497,9.814141959880265
959992.0,-8.231604,5.3074703,-0.6101916,9.813301136055525
960010.749276411,-8.2124605,5.3074703,-0.67240715,9.80132031028542
960028.8328509406,-8.274676,5.3505425,-0.6580497,9.875808693821096
960046.9164254704,-8.334499,5.3696856,-0.677193,9.937604710547575
960065.0,-8.382357,5.2978983,-0.7106937,9.94166589701201
960082.749276411,-8.413465,5.3218274,-0.77530223,9.985456110236465
960100.8328509406,-8.348856,5.4055796,-0.7059079,9.971057781597425
960118.9164254704,-8.226818,5.333792,-0.66044265,9.826802938816217
960137.0,-8.308177,5.3026843,-0.6460852,9.877332227603492
960154.749276411,-8.312963,5.278755,-0.77530223,9.877838920393316
960172.8328509406,-8.324927,5.3002915,-0.84948236,9.905509568934475
960190.9164254704,-8.32732,5.3002915,-0.83751786,9.906502134113293
960209.0,-8.257926,5.372079,-0.84708947,9.887878193722953
960227.749276411,-8.2124605,5.355328,-0.7872668,9.835844369754255
960245.8328509406,-8.219639,5.372079,-0.74658734,9.847796237169527
960263.9164254704,-8.224425,5.384043,-0.7226582,9.856536941568333
960282.0,-8.274676,5.3696856,-0.75855184,9.893391089095322
960299.749276411,-8.274676,5.3505425,-0.78008807,9.884690452727318
960317.8328509406,-8.32732,5.34815,-0.86623275,9.934652786185966
960335.9164254704,-8.315355,5.42233,-0.84230363,9.962743939800731
960354.0,-8.332106,5.3242207,-0.859054,9.925184644753994
960371.749276411,-8.262712,5.29072,-0.832732,9.846703524386626
960389.8328509406,-8.298605,5.314649,-0.81119585,9.887890454808003
960407.9164254704,-8.260319,5.329006,-0.7944455,9.862166018794616
960426.0,-8.214853,5.3242207,-0.8566611,9.826749417491559
960444.749276411,-8.214853,5.309863,-0.832732,9.816918939983257
960462.8328509406,-8.217246,5.3218274,-0.83991075,9.82600777365214
960480.9164254704,-8.248354,5.412758,-0.8614469,9.903301653357813
960499.0,-8.169388,5.379257,-0.80880296,9.81475768395215
960516.749276411,-8.186138,5.386436,-0.7872668,9.830886895469922
960534.8328509406,-8.2028885,5.388829,-0.8446966,9.85090706893151
960552.9164254704,-8.222033,5.372079,-0.8446966,9.857716357320369
960571.0,-8.238783,5.3385777,-0.86623275,9.855369924929194
960588.749276411,-8.231604,5.3457565,-0.7968384,9.847404145551396
960606.8328509406,-8.274676,5.333792,-0.75855184,9.873955686461601
960624.9164254704,-8.303391,5.3505425,-0.7776951,9.908552710247408
960643.0,-8.284247,5.386436,-0.78248096,9.91235176897327
960660.749276411,-8.303391,5.3696856,-0.7418015,9.916153236367952
960678.8328509406,-8.291427,5.336185,-0.78487384,9.891342628544942
960696.9164254704,-8.308177,5.3266134,-0.83751786,9.904547013478584
960715.0,-8.217246,5.336185,-0.82076746,9.832174805308124
960733.749276411,-8.222033,5.34815,-0.84708947,9.84490201301028
960751.8328509406,-8.267497,5.4079723,-0.7896597,9.910662615808308
960769.9164254704,-8.257926,5.4582233,-0.8279462,9.93332966956364
960788.0,-8.135887,5.5012956,-0.7872668,9.852750863070202
960805.749276411,-8.104779,5.415151,-0.8231604,9.782070130384987
960823.8328509406,-8.059315,5.393615,-0.8542682,9.735163850443465
960841.9164254704,-8.119137,5.417544,-0.84230363,9.796920129398636
960860.0,-8.133494,5.386436,-0.86623275,9.793762127359669
960877.749276411,-8.176567,5.4295087,-0.79205257,9.846987351596848
960895.8328509406,-8.250747,5.5060816,-0.75855184,9.948224039386877
960913.9164254704,-8.272284,5.472581,-0.8446966,9.95456366317824
960932.0,-8.320142,5.4007936,-0.7992313,9.951487581304852
960950.749276411,-8.353642,5.3744717,-0.83033913,9.967835461577105
960968.8328509406,-8.341678,5.367293,-0.8614469,9.956581580294143
960986.9164254704,-8.293819,5.2978983,-0.832732,9.87666961003191
961005.0,-8.358428,5.2500405,-0.8805902,9.909676229986543
961023.749276411,-8.339285,5.3026843,-0.885376,9.921997065010023
961041.8328509406,-8.332106,5.336185,-0.89494765,9.934776899644074
961059.9164254704,-8.255533,5.3577213,-0.9164838,9.884277677110509
961078.0,-8.174174,5.417544,-0.82076746,9.84076027538558
961095.749276411,-8.19571,5.398401,-0.7705164,9.844089154592718
961113.8328509406,-8.1119585,5.4630094,-0.72983694,9.8071914618406
961131.9164254704,-8.171782,5.415151,-0.7968384,9.83548843952549
961150.0,-8.169388,5.410365,-0.82076746,9.83283321078741
961167.749276411,-8.267497,5.398401,-0.84948236,9.91039153019502
961185.8328509406,-8.25314,5.388829,-0.8542682,9.893612687404548
961203.9164254704,-8.300998,5.384043,-0.8901618,9.934126778536312
961222.0,-8.257926,5.3457565,-0.90691215,9.87891411171217
961239.749276411,-8.303391,5.362507,-0.87580436,9.923195891492064
961257.8328509406,-8.329713,5.388829,-0.8805902,9.959871271956583
961275.9164254704,-8.272284,5.391222,-0.92366254,9.91711196456606
961294.0,-8.219639,5.362507,-0.81119585,9.847689339252494
961312.749276411,-8.17896,5.333792,-0.8734115,9.80344691571267
961330.8328509406,-8.222033,5.4031863,-0.81358874,9.87209073517112
961348.9164254704,-8.25314,5.415151,-0.8805902,9.910278467971374
961367.0,-8.265104,5.443866,-0.9284483,9.940303687641785
961384.749276411,-8.186138,5.412758,-0.8805902,9.853235185559312
961402.8328509406,-8.205282,5.3457565,-0.87819725,9.832344362700272
961420.9164254704,-8.269891,5.415151,-0.9021264,9.92616691106184
961439.0,-8.210068,5.3768644,-0.8614469,9.851800754285023
961456.749276411,-8.233996,5.4031863,-0.8231604,9.882849050989893
961474.8328509406,-8.257926,5.4582233,-0.8925547,9.938923347457257
961492.9164254704,-8.279462,5.4582233,-0.87819725,9.9555473486903
961511.0,-8.219639,5.415151,-0.8040171,9.875868019582603
961528.749276411,-8.1622095,5.398401,-0.84948236,9.82272963888564
961546.8328509406,-8.243568,5.379257,-0.8877689,9.883367485957416
961564.9164254704,-8.248354,5.417544,-0.832732,9.903462489709142
961583.0,-8.241176,5.4319015,-0.82076746,9.904352325723934
961601.749276411,-8.205282,5.410365,-0.8231604,9.862874589939647
961619.8328509406,-8.25314,5.360114,-0.9212696,9.884021429988918
961637.9164254704,-8.226818,5.3457565,-0.8518753,9.848011905413514
961656.0,-8.245961,5.360114,-0.87580436,9.873891238185278
961673.749276411,-8.250747,5.4007936,-0.86862564,9.89938927764109
961691.8328509406,-8.222033,5.3313994,-0.8614469,9.837059366341597
961709.9164254704,-8.267497,5.3505425,-0.8518753,9.884609411406469
961728.0,-8.198103,5.336185,-0.89494765,9.822662289271403
961745.749276411,-8.217246,5.309863,-0.84708947,9.820149564719973
961763.8328509406,-8.23639,5.3577213,-0.8710185,9.864176143394639
961781.9164254704,-8.300998,5.34815,-0.8829831,9.914077636038039
961800.0,-8.360821,5.3768644,-0.9188767,9.982902030964304
961818.749276411,-8.305784,5.262005,-0.9188767,9.87517487766591
961836.8328509406,-8.217246,5.309863,-0.885376,9.823526228634043
961854.9164254704,-8.207675,5.360114,-0.81358874,9.836598885614672
961873.0,-8.207675,5.355328,-0.81119585,9.833794059276725
961890.749276411,-8.226818,5.3577213,-0.87819725,9.85682212193693
961908.8328509406,-8.200496,5.3696856,-0.8734115,9.840960610488978
961926.9164254704,-8.248354,5.4031863,-0.8805902,9.899757825429859
961945.0,-8.229211,5.379257,-0.8231604,9.865795081933243
961963.749276411,-8.25314,5.384043,-0.8159817,9.887773511776242
961981.8328509406,-8.2028885,5.360114,-0.8614469,9.836680974696081
961999.9164254704,-8.291427,5.384043,-0.859054,9.923389264615896
962018.0,-8.394321,5.4079723,-0.86623275,10.02303091014793
962035.749276411,-8.329713,5.386436,-0.86623275,9.95731744103991
962053.8328509406,-8.322535,5.391222,-0.84708947,9.952257233898946
962071.9164254704,-8.324927,5.367293,-0.8183746,9.938912450017012
962090.0,-8.243568,5.2739697,-0.859054,9.823906735207643
962108.749276411,-8.248354,5.259612,-0.87580436,9.821705319182357
962126.8328509406,-8.279462,5.285934,-0.81119585,9.856400355548532
962144.9164254704,-8.293819,5.3529353,-0.86862564,9.90938244459323
962163.0,-8.312963,5.3457565,-0.84230363,9.91927123340079
962180.749276411,-8.322535,5.3002915,-0.8542682,9.903910993578673
962198.8328509406,-8.279462,5.3457565,-0.8829831,9.894759356428123
962216.9164254704,-8.277069,5.2931128,-0.86623275,9.862924187149437
962235.0,-8.231604,5.309863,-0.8997334,9.836842465072854
962252.749276411,-8.279462,5.362507,-0.8710185,9.90275949227463
962270.8328509406,-8.219639,5.3505425,-0.9021264,9.849091449276132
962288.9164254704,-8.233996,5.386436,-0.885376,9.87908262803222
962307.0,-8.241176,5.3505425,-0.8710185,9.864276969683308
962324.749276411,-8.210068,5.3649,-0.8279462,9.8424013068315
962342.8328509406,-8.238783,5.3577213,-0.84708947,9.86409060277467
962360.9164254704,-8.190925,5.340971,-0.9164838,9.821260923839079
962379.0,-8.305784,5.3529353,-0.87580436,9.920030113746485
962397.749276411,-8.279462,5.379257,-0.90691215,9.915058574174468
962415.8328509406,-8.320142,5.384043,-0.8279462,9.944756248199724
962433.9164254704,-8.277069,5.3768644,-0.83033913,9.905049473756176
962452.0,-8.272284,5.384043,-0.8997334,9.91101012982938
962469.749276411,-8.289034,5.333792,-0.8566611,9.89400272855598
962487.8328509406,-8.262712,5.3457565,-0.8997334,9.882258969654247
962505.9164254704,-8.219639,5.372079,-0.89734054,9.860371094299113
962524.0,-8.243568,5.3242207,-0.89494765,9.85417022022519
962541.749276411,-8.279462,5.343364,-0.8997334,9.89497599982009
962559.8328509406,-8.291427,5.3649,-0.87819725,9.914693344538527
962577.9164254704,-8.250747,5.3696856,-0.859054,9.881615418329757
962596.0,-8.272284,5.333792,-0.87580436,9.881652339204969
962613.749276411,-8.241176,5.3649,-0.8925547,9.873995531975293
962631.8328509406,-8.250747,5.340971,-0.859054,9.866041306206153
962649.9164254704,-8.205282,5.3313994,-0.93084127,9.829391523984562
962668.0,-8.17896,5.372079,-0.8614469,9.823273905646763
962686.749276411,-8.1526375,5.3696856,-0.8518753,9.799220028961678
962704.8328509406,-8.284247,5.446259,-0.8829831,9.953398646039233
962722.9164254704,-8.284247,5.4630094,-0.8734115,9.961730156445196
962741.0,-8.260319,5.3529353,-0.911698,9.885240490294159
962758.749276411,-8.2124605,5.3242207,-0.8638398,9.825377994073959
962776.8328509406,-8.229211,5.2763624,-0.911698,9.817897285155246
962794.9164254704,-8.284247,5.2452545,-0.86862564,9.843574230392367
962813.0,-8.305784,5.2189326,-0.87819725,9.848580392518828
962830.749276411,-8.408679,5.206968,-0.87819725,9.92923102198617
962848.8328509406,-8.356035,5.2380757,-0.9188767,9.904801479583444
962866.9164254704,-8.372786,5.285934,-0.9188767,9.944293742843424
962885.0,-8.332106,5.2763624,-0.87580436,9.901061753588085
962903.749276411,-8.339285,5.312256,-0.8901618,9.92754381259233
962921.8328509406,-8.346463,5.3002915,-0.8901618,9.927181000944854
962939.9164254704,-8.233996,5.2524333,-0.9451987,9.812244711657296
962958.0,-8.181353,5.2452545,-0.87580436,9.757779714534156
962976.749276411,-8.171782,5.329006,-0.89494765,9.796798318828479
962994.8328509406,-8.31057,5.410365,-0.911698,9.958354101021364
963012.9164254704,-8.370393,5.467795,-0.93802,10.041919271577223
963031.0,-8.298605,5.3385777,-0.93323416,9.911517684106366
963048.749276411,-8.245961,5.29072,-0.92605543,9.840994339565158
963066.8328509406,-8.241176,5.2141466,-0.89494765,9.79312197031713
963084.9164254704,-8.281855,5.278755,-0.9858781,9.870477811084408
963103.0,-8.269891,5.3505425,-0.90451926,9.891286937901366
963120.749276411,-8.286641,5.340971,-0.92366254,9.901895918132105
963138.8328509406,-8.341678,5.340971,-0.9021264,9.94602408604071
963156.9164254704,-8.332106,5.372079,-1.0026284,9.9643608368005
963175.0,-8.308177,5.2739697,-0.9188767,9.883566959840461
963193.749276411,-8.2124605,5.254826,-0.9571632,9.796625191655059
963211.8328509406,-8.226818,5.2931128,-0.93802,9.827383122634826
963229.9164254704,-8.267497,5.262005,-0.9475916,9.84571648512309
963248.0,-8.248354,5.2883267,-0.9499845,9.843993780244334
963265.749276411,-8.35125,5.2739697,-0.93323416,9.92114201876019
963283.8328509406,-8.363214,5.235683,-0.93323416,9.910935923699432
963301.9164254704,-8.277069,5.2476473,-0.96434194,9.847722010353522
963320.0,-8.296212,5.266791,-0.86862564,9.86512703866962
963337.749276411,-8.286641,5.285934,-0.8901618,9.869240363139212
963355.8328509406,-8.222033,5.3026843,-0.9140909,9.826283611417812
963373.9164254704,-8.289034,5.2715764,-0.9093051,9.865314904202448
963392.0,-8.245961,5.2739697,-0.98109233,9.837335582871203
963409.749276411,-8.348856,5.3768644,-0.9571632,9.976483783185216
963427.8328509406,-8.348856,5.379257,-0.9571632,9.977773487718553
963445.9164254704,-8.269891,5.336185,-0.9140909,9.884408413231862
963464.0,-8.231604,5.2643976,-0.9667349,9.818745483542171
963482.749276411,-8.138281,5.209361,-0.9164838,9.706132196655084
963500.8328509406,-8.243568,5.206968,-0.9093051,9.79263830071008
963518.9164254704,-8.245961,5.285934,-0.8805902,9.834246802181296
963537.0,-8.2028885,5.3505425,-0.8805902,9.833164490034454
963554.749276411,-8.312963,5.3242207,-0.93802,9.91627759908311
963572.8328509406,-8.396714,5.3649,-0.8877689,10.003753876800607
963590.9164254704,-8.389536,5.372079,-0.8901618,10.001796593998312
963609.0,-8.329713,5.21654,-0.911698,9.870542106549824
963626.749276411,-8.403893,5.1519313,-1.014593,9.90945067251549
963644.8328509406,-8.38475,5.2380757,-1.0361292,9.94057510008969
963662.9164254704,-8.269891,5.199789,-0.87819725,9.808166658775203
963681.0,-8.308177,5.235683,-0.92605543,9.863861322993674
963698.749276411,-8.305784,5.343364,-0.93802,9.920557857880372
963716.8328509406,-8.277069,5.333792,-0.90451926,9.888243697529704
963734.9164254704,-8.238783,5.317042,-0.93323416,9.849842991045284
963753.0,-8.277069,5.3002915,-0.9739136,9.876814715078854
963771.749276411,-8.32732,5.283541,-0.9763065,9.910259242977615
963789.8328509406,-8.245961,5.283541,-0.911698,9.835795420575094
963807.9164254704,-8.279462,5.2452545,-0.86623275,9.839336611600745
963826.0,-8.368,5.223718,-0.9188767,9.907319926868562
963843.749276411,-8.439787,5.2213254,-0.9571632,9.97037636849725
963861.8328509406,-8.413465,5.23329,-1.0169859,9.960320168103223
963879.9164254704,-8.370393,5.185432,-0.93323416,9.89055660711084
963898.0,-8.293819,5.1686816,-0.9451987,9.818151744061671
963915.749276411,-8.274676,5.149538,-0.93323416,9.790757402561402
963933.8328509406,-8.238783,5.228504,-0.8925547,9.798543427040423
963951.9164254704,-8.324927,5.2715764,-0.911698,9.895712230030236
963970.0,-8.312963,5.305077,-0.9547703,9.90761233300234
963988.749276411,-8.281855,5.305077,-0.8351249,9.870683756232594
964006.8328509406,-8.348856,5.329006,-0.9212696,9.947383531997556
964024.9164254704,-8.389536,5.2931128,-0.95237744,9.96535900994243
964043.0,-8.332106,5.281148,-0.9667349,9.91206794569216
964061.749276411,-8.308177,5.2572193,-0.9021264,9.873094341350054
964079.8328509406,-8.300998,5.206968,-0.9451987,9.844413854136247
964097.9164254704,-8.277069,5.1662884,-0.8997334,9.798465556086377
964116.0,-8.289034,5.2763624,-0.93323416,9.870106930863548
964133.749276411,-8.329713,5.2763624,-0.9164838,9.902729997034415
964151.8328509406,-8.312963,5.254826,-0.8997334,9.875630122717263
964169.9164254704,-8.269891,5.1973963,-0.9284483,9.811525961689526
964188.0,-8.308177,5.340971,-0.8925547,9.91707770357085
964205.749276411,-8.305784,5.417544,-0.8901618,9.956315527180285
964223.8328509406,-8.289034,5.34815,-0.8877689,9.904490228954906
964241.9164254704,-8.2124605,5.4007936,-0.84708947,9.86562920162957
964260.0,-8.289034,5.386436,-0.9188767,9.928046727582162
964278.749276411,-8.289034,5.4749737,-0.9763065,9.981813264672402
964296.8328509406,-8.219639,5.472581,-0.9786994,9.923177948996097
964314.9164254704,-8.1526375,5.372079,-0.96194905,9.810712357593774
964333.0,-8.260319,5.3960075,-0.82076746,9.900678064921216
964350.749276411,-8.262712,5.412758,-0.80880296,9.91082847140504
964368.8328509406,-8.229211,5.3577213,-0.81119585,9.853077180153004
964386.9164254704,-8.23639,5.262005,-0.86862564,9.812304895109527
964405.0,-8.289034,5.262005,-0.9284483,9.86198750348802
964422.749276411,-8.358428,5.3242207,-0.99305683,9.95975936261023
964440.8328509406,-8.286641,5.360114,-0.99784267,9.919421916117377
964458.9164254704,-8.238783,5.333792,-0.96434194,9.861888145664397
964477.0,-8.233996,5.2691836,-1.0002356,9.826670707520035
964494.749276411,-8.329713,5.3242207,-0.99784267,9.936152913414237
964512.8328509406,-8.32732,5.372079,-1.0768087,9.96809952503669
964530.9164254704,-8.2124605,5.2691836,-0.94280577,9.802942721168705
964549.0,-8.274676,5.2572193,-0.99305683,9.853668329149208
964567.749276411,-8.35125,5.367293,-0.9547703,9.973103681207325
964585.8328509406,-8.315355,5.3242207,-0.9499845,9.919421625708514
964603.9164254704,-8.279462,5.180646,-1.0002356,9.81779278872127
964622.0,-8.286641,5.2452545,-1.040915,9.862282589232384
964639.749276411,-8.298605,5.3457565,-1.0002356,9.921916586971724
964657.8328509406,-8.25314,5.3385777,-0.9763065,9.877646789619455
964675.9164254704,-8.2124605,5.343364,-0.9451987,9.843243717547482
964694.0,-8.272284,5.29072,-0.9475916,9.865106716880796
964711.749276411,-8.286641,5.4319015,-1.0122001,9.95984548128249
964729.8328509406,-8.279462,5.4055796,-1.0600582,9.944521366499618
964747.9164254704,-8.200496,5.333792,-0.9954498,9.833025579627057
964766.0,-8.214853,5.355328,-1.0457008,9.86188815401562
964783.749276411,-8.267497,5.360114,-1.0552725,9.909385893548665
964801.8328509406,-8.305784,5.412758,-1.0983448,9.974485366218502
964819.9164254704,-8.305784,5.4079723,-1.0576653,9.967490563780201
964838.0,-8.260319,5.3385777,-1.093559,9.895915982221116
964856.749276411,-8.296212,5.3242207,-1.1103094,9.920042670018152
964874.8328509406,-8.150245,5.29072,-1.0480938,9.773265180686721
964892.9164254704,-8.222033,5.3074703,-1.0768087,9.845333138846383
964911.0,-8.277069,5.333792,-1.0169859,9.899165048165617
964928.749276411,-8.305784,5.3385777,-1.0002356,9.924058190533783
964946.8328509406,-8.303391,5.386436,-1.0648441,9.954591294386816
964964.9164254704,-8.217246,5.379257,-1.0433079,9.876640576165936
964983.0,-8.265104,5.34815,-1.0744157,9.90298044276179
965001.749276411,-8.269891,5.340971,-1.0457008,9.90002820894176
965019.8328509406,-8.262712,5.355328,-1.0265576,9.899786264796113
965037.9164254704,-8.260319,5.355328,-0.9858781,9.893652692378312
965056.0,-8.31057,5.312256,-0.99305683,9.913213374181232
965073.749276411,-8.233996,5.3744717,-1.0026284,9.8837695182862
965091.8328509406,-8.265104,5.3242207,-1.0624512,9.888785200696086
965109.9164254704,-8.265104,5.285934,-1.0504867,9.866943026593844
965128.0,-8.229211,5.29072,-1.0863802,9.84336597612184
965146.749276411,-8.23639,5.2931128,-1.0983448,9.851980747307156
965164.8328509406,-8.210068,5.360114,-1.0241647,9.858242844967155
965182.9164254704,-8.245961,5.3457565,-0.99066395,9.876963117914476
965201.0,-8.293819,5.360114,-0.97152066,9.922807470195309
965218.749276411,-8.322535,5.367293,-1.0457008,9.958208329674301
965236.8328509406,-8.238783,5.2404685,-1.0385221,9.819296490725273
965254.9164254704,-8.245961,5.235683,-1.0433079,9.823275454969814
965273.0,-8.255533,5.235683,-0.9858781,9.825383311537399
965290.749276411,-8.243568,5.266791,-1.0361292,9.837126843108084
965308.8328509406,-8.329713,5.3026843,-1.0169859,9.926572407867395
965326.9164254704,-8.34407,5.412758,-0.92605543,9.988945489434634
965345.0,-8.348856,5.515653,-0.86623275,10.043713640995424
965362.749276411,-8.324927,5.3768644,-0.95237744,9.956008392902113
965380.8328509406,-8.308177,5.2955055,-1.0504867,9.908163597293706
965398.9164254704,-8.279462,5.2452545,-0.9786994,9.849875039551245
965417.0,-8.169388,5.3505425,-0.8040171,9.79865546062023
965435.749276411,-8.095208,5.3074703,-0.7657306,9.710199632367114
965453.8328509406,-8.176567,5.3960075,-0.7681235,9.82665551226853
965471.9164254704,-8.205282,5.5084743,-0.7609448,9.912062288037314
965490.0,-8.210068,5.5084743,-0.72744405,9.91351000021006
965507.749276411,-8.23639,5.4821525,-0.87819725,9.932942498336724
965525.8328509406,-8.241176,5.412758,-0.87580436,9.89858395461366
965543.9164254704,-8.210068,5.379257,-0.8925547,9.855875218830901
965562.0,-8.1622095,5.362507,-0.87819725,9.805578802745242
965579.749276411,-8.193317,5.3026843,-0.8997334,9.800939977320088
965597.8328509406,-8.207675,5.309863,-0.8518753,9.812556522698051
965615.9164254704,-8.279462,5.336185,-0.8614469,9.887691951370078
965634.0,-8.219639,5.386436,-0.75615895,9.856365173332517
965652.749276411,-8.346463,5.4797597,-0.7418015,10.012066741962688
965670.8328509406,-8.353642,5.4055796,-0.81358874,9.983263600344076
965688.9164254704,-8.241176,5.417544,-0.72983694,9.889359272162205
965707.0,-8.150245,5.2978983,-0.73701566,9.748713353066297
965724.749276411,-8.083243,5.3074703,-0.70112205,9.695340659895725
965742.8328509406,-8.099994,5.329006,-0.6173703,9.71541835616944
965760.9164254704,-8.143066,5.42233,-0.6293348,9.803430460800293
965779.0,-8.214853,5.55394,-0.66283554,9.938280046783552
965796.749276411,-8.255533,5.5443683,-0.70112205,9.969223494792866
965814.8328509406,-8.159817,5.4893312,-0.6389065,9.85512922353252
965832.9164254704,-8.169388,5.465402,-0.6293348,9.84914116086469
965851.0,-8.188532,5.534796,-0.6795859,9.906960183230717
965868.749276411,-8.281855,5.5874405,-0.73701566,10.017574839508336
965886.8328509406,-8.348856,5.6687994,-0.67001426,10.113733349005187
965904.9164254704,-8.284247,5.5132604,-0.6939433,9.975286757724415
965923.0,-8.217246,5.503689,-0.62454903,9.909782334850293
965941.749276411,-8.229211,5.379257,-0.6197632,9.850909906127669
965959.8328509406,-8.265104,5.3960075,-0.60301286,9.889007310149873
965977.9164254704,-8.123923,5.283541,-0.60779864,9.709961359109306
965996.0,-8.245961,5.467795,-0.6532639,9.91561438835684
966013.749276411,-8.262712,5.4055796,-0.78008807,9.90460689799633
966031.8328509406,-8.375178,5.494117,-0.8901618,10.05590951488488
966049.9164254704,-8.346463,5.510867,-0.75855184,10.030378885965643
966068.0,-8.250747,5.2739697,-0.7633377,9.822029673075132
966086.749276411,-8.356035,5.484545,-0.84230363,10.030604676855786
966104.8328509406,-8.169388,5.15911,-0.7992313,9.695054768155964
966122.9164254704,-8.277069,5.43908,-0.7968384,9.936217283900124
966141.0,-8.300998,5.3457565,-0.77530223,9.903775739642898
966158.749276411,-8.183745,5.2452545,-0.6580497,9.742659103266693
966176.8328509406,-8.284247,5.3816504,-0.7346228,9.906088029242877
966194.9164254704,-8.336892,5.3649,-0.75376606,9.942539087319291
966213.0,-8.322535,5.3074703,-0.72744405,9.89762621326384
966231.749276411,-8.281855,5.29072,-0.78008807,9.858467312740927
966249.8328509406,-8.2124605,5.23329,-0.79205257,9.770321333600235
966267.9164254704,-8.210068,5.1662884,-0.79205257,9.732579291752119
966286.0,-8.300998,5.3266134,-0.8255533,9.897520717846689
966303.749276411,-8.35125,5.3002915,-0.78487384,9.922322988705245
966321.8328509406,-8.382357,5.285934,-0.86623275,9.947631190639186
966339.9164254704,-8.336892,5.3026843,-0.7944455,9.912283927410511
966358.0,-8.298605,5.3074703,-0.8159817,9.884427756129435
966375.749276411,-8.243568,5.259612,-0.73701566,9.806279816742597
966393.8328509406,-8.226818,5.2261114,-0.75855184,9.775897690969424
966411.9164254704,-8.300998,5.2739697,-0.73701566,9.86227743858422
966430.0,-8.317748,5.278755,-0.7776951,9.882054230274848
966447.749276411,-8.341678,5.3242207,-0.7154795,9.92183596079439
966465.8328509406,-8.341678,5.4031863,-0.72505116,9.965124847828504
966483.9164254704,-8.274676,5.494117,-0.6532639,9.954011163230037
966502.0,-8.248354,5.4821525,-0.64129937,9.924747081136863
966520.749276411,-8.25314,5.448652,-0.6843717,9.913147487073159
966538.8328509406,-8.217246,5.4797597,-0.66283554,9.899002431929551
966556.9164254704,-8.233996,5.391222,-0.74658734,9.870225804790296
966575.0,-8.289034,5.412758,-0.8040171,9.932395346381073
966592.749276411,-8.308177,5.34815,-0.8255533,9.915142547486138
966610.8328509406,-8.284247,5.329006,-0.78487384,9.881451323047711
966628.9164254704,-8.291427,5.333792,-0.7513731,9.88744963734312
966647.0,-8.303391,5.278755,-0.6748001,9.862398877751092
966664.749276411,-8.286641,5.3074703,-0.7346228,9.867995272928688
966682.8328509406,-8.265104,5.259612,-0.80162424,9.829448811785714
966700.9164254704,-8.368,5.254826,-0.8446966,9.917163537843246
966719.0,-8.320142,5.2739697,-0.8518753,9.887629181124876
966736.749276411,-8.348856,5.2476473,-0.90691215,9.902711161179594
966754.8328509406,-8.334499,5.29072,-0.9021264,9.913093550500669
966772.9164254704,-8.315355,5.2404685,-0.9547703,9.875182286989913
966791.0,-8.329713,5.281148,-0.95237744,9.908666189174705
966809.749276411,-8.346463,5.329006,-1.0576653,9.958935959490304
966827.8328509406,-8.210068,5.3266134,-0.8829831,9.826377055281828
966845.9164254704,-8.245961,5.285934,-0.8518753,9.83171717415768
966864.0,-8.243568,5.2931128,-0.86862564,9.835037721667021
966881.749276411,-8.284247,5.34815,-0.8614469,9.898158795504779
966899.8328509406,-8.286641,5.3457565,-0.8183746,9.895214429515836
966917.9164254704,-8.289034,5.3002915,-0.81119585,9.872143300478648
966936.0,-8.305784,5.278755,-0.84948236,9.877900712430357
966953.749276411,-8.277069,5.278755,-0.8183746,9.851135090268082
966971.8328509406,-8.241176,5.2691836,-0.7681235,9.811793484615196
966989.9164254704,-8.217246,5.2261114,-0.7657306,9.768403940332439
967008.0,-8.300998,5.305077,-0.82076746,9.885548492386643
967026.749276411,-8.372786,5.3002915,-0.8183746,9.94315706265839
967044.8328509406,-8.317748,5.2883267,-0.8040171,9.889275735590008
967062.9164254704,-8.300998,5.3218274,-0.7394086,9.888131256670732
967081.0,-8.2028885,5.391222,-0.5910483,9.833717124752427
967099.749276411,-8.300998,5.484545,-0.44747382,9.959268771983934
967117.8328509406,-8.229211,5.3457565,-0.5695121,9.829616995176346
967135.9164254704,-8.169388,5.161503,-0.77290934,9.694194260556792
967154.0,-8.171782,5.106466,-0.93562704,9.681395251855962
967171.749276411,-8.233996,5.1471453,-1.0217718,9.764005964695194
967189.8328509406,-8.284247,5.262005,-1.0457008,9.869697824156251
967207.9164254704,-8.231604,5.228504,-0.8279462,9.786830610617844
967226.0,-8.265104,5.3002915,-0.72983694,9.84569429114965
967243.749276411,-8.210068,5.503689,-0.7154795,9.909980831881828
967261.8328509406,-8.097601,5.42233,-0.5527618,9.761062964228856
967279.9164254704,-8.140674,5.443866,-0.5695121,9.809719375816947
967298.0,-8.332106,5.2500405,-0.8614469,9.885798218069993
967316.749276411,-8.360821,5.2643976,-1.0217718,9.932835823479717
967334.8328509406,-8.379964,5.3529353,-0.72744405,9.970300287010541
967352.9164254704,-8.329713,5.3218274,-0.53840435,9.899285064178054
967371.0,-8.463716,5.443866,-0.3565433,10.069622072321627
967388.749276411,-8.63122,5.6065836,-0.1459674,10.293349543955637
967406.8328509406,-8.743686,5.2978983,-0.442688,10.23307108980891
967424.9164254704,-8.724543,4.91264,-0.859054,10.049360979851654
967443.0,-8.60729,4.8312817,-1.0815945,9.929580588891213
967460.749276411,-8.408679,4.974856,-1.1509888,9.83767502835413
967478.8328509406,-8.123923,4.929391,-1.1055236,9.566566937567885
967496.9164254704,-8.052135,5.1710744,-0.8351249,9.605952431027356
967515.0,-8.135887,5.34815,-0.63651353,9.757075134134311
967532.749276411,-8.128709,5.6089764,-0.39722276,9.884043311494542
967550.8328509406,-8.260319,5.6113696,-0.55754757,10.001559781472992
967568.9164254704,-8.1622095,5.5012956,-0.67240715,9.86600469165917
967587.0,-8.174174,5.305077,-0.78248096,9.776156658471034
967605.749276411,-8.19571,5.156717,-0.93323416,9.72791440235675
967623.8328509406,-8.277069,5.2141466,-0.92366254,9.826003688420425
967641.9164254704,-8.32732,5.230897,-0.8877689,9.873939205140783
967660.0,-8.291427,5.23329,-0.8638398,9.842830137744583
967677.749276411,-8.329713,5.1375737,-0.9858781,9.83619529154237
967695.8328509406,-8.341678,5.1973963,-0.9691278,9.87601786387968
967713.9164254704,-8.38475,5.2021823,-1.0480938,9.922964973158564
967732.0,-8.411072,5.266791,-0.9571632,9.970024123255632
967749.749276411,-8.370393,5.2763624,-0.9188767,9.937193443844476
967767.8328509406,-8.255533,5.329006,-0.9164838,9.868742200391468
967785.9164254704,-8.260319,5.329006,-0.87819725,9.869265694047586
967804.0,-8.219639,5.3744717,-0.9451987,9.866144734743333
967821.749276411,-8.250747,5.43908,-0.69633627,9.906730111662803
967839.8328509406,-8.432608,5.6400843,-0.5264398,10.158571132585257
967857.9164254704,-8.427822,5.185432,-0.7130866,9.920956667046156
967876.0,-8.329713,5.068179,-0.97152066,9.798694271749518
967894.749276411,-8.312963,5.001178,-1.1055236,9.764185457948347
967912.8328509406,-8.415857,5.029893,-1.14381,9.870905427163104
967930.9164254704,-8.415857,5.154324,-0.9667349,9.916061784211664
967949.0,-8.324927,5.262005,-0.81119585,9.881859383861482
967966.749276411,-8.274676,5.3313994,-0.69633627,9.868078164881643
967984.8328509406,-8.312963,5.262005,-0.7130866,9.8642051356657
968002.9164254704,-8.277069,5.2691836,-0.75376606,9.840850080886197
968021.0,-8.339285,5.2643976,-0.8255533,9.896418273964155
968038.749276411,-8.279462,5.156717,-0.82076746,9.788507570152248
968056.8328509406,-8.286641,5.1662884,-0.9212696,9.808552011930187
968074.9164254704,-8.322535,5.099287,-0.9547703,9.807084330235776
968093.0,-8.315355,5.178253,-0.9021264,9.837340339218267
968111.749276411,-8.365606,5.2213254,-0.7968384,9.893460169002335
968129.8328509406,-8.415857,5.1926107,-0.7872668,9.920163503722392
968147.9164254704,-8.423037,5.336185,-0.7968384,10.002868293310103
968166.0,-8.379964,5.3074703,-0.7441944,9.947203774512184
968184.749276411,-8.300998,5.2141466,-0.7896597,9.834503292190188
968202.8328509406,-8.334499,5.2213254,-0.9475916,9.880487961334536
968220.9164254704,-8.35125,5.199789,-0.9284483,9.881457304102158
968239.0,-8.308177,5.125609,-0.93084127,9.806331533970551
968256.749276411,-8.293819,5.0897155,-0.8710185,9.769918664095597
968274.8328509406,-8.308177,5.053822,-0.77290934,9.755219665331595
968292.9164254704,-8.32732,5.0322857,-0.6532639,9.751661985111445
968311.0,-8.44218,5.022714,-0.6748001,9.846492484796604
968328.749276411,-8.569004,5.1327877,-0.73701566,10.01581405619995
968346.8328509406,-8.619255,5.1926107,-0.81119585,10.09518703857619
968364.9164254704,-8.619255,5.2691836,-0.86623275,10.139339808030233
968383.0,-8.411072,5.266791,-0.87819725,9.962753135392473
968401.749276411,-8.25314,5.3194346,-0.89494765,9.859596118478569
968419.8328509406,-8.174174,5.2978983,-0.9571632,9.787798954353995
968437.9164254704,-8.119137,5.2524333,-0.9188767,9.713535689208168
968456.0,-8.176567,5.3026843,-1.0433079,9.801183605318181
968473.749276411,-8.169388,5.386436,-1.0361292,9.840028292425416
968491.8328509406,-8.217246,5.3696856,-1.0074143,9.867701801291314
968509.9164254704,-8.224425,5.3026843,-0.9499845,9.831688457041942
968528.0,-8.222033,5.2404685,-0.9164838,9.793073026800306
968545.749276411,-8.265104,5.211754,-0.83033913,9.80631362735973
968563.8328509406,-8.346463,5.2213254,-0.81358874,9.87864414689126
968581.9164254704,-8.415857,5.259612,-0.7776951,9.954646005938987
968600.0,-8.411072,5.1950035,-0.8255533,9.92047034194131
968617.749276411,-8.425429,5.1710744,-0.7944455,9.917610999471929
968635.8328509406,-8.430215,5.180646,-0.78248096,9.925718834235813
968653.9164254704,-8.408679,5.135181,-0.75855184,9.881870638789469
968672.0,-8.415857,5.1375737,-0.7394086,9.887772127488308
968690.749276411,-8.523539,5.1973963,-0.8518753,10.019447934418581
968708.8328509406,-8.439787,5.1973963,-0.8183746,9.945484899719464
968726.9164254704,-8.401501,5.1878247,-0.8446966,9.910209711049642
968745.0,-8.315355,5.223718,-0.8877689,9.860045240228677
968762.749276411,-8.353642,5.2404685,-0.8040171,9.894053176567663
968780.8328509406,-8.298605,5.2715764,-0.7489802,9.85988509198023
968798.9164254704,-8.281855,5.2739697,-0.75855184,9.847805823202979
968817.0,-8.281855,5.305077,-0.8183746,9.869280683154125
968834.749276411,-8.250747,5.262005,-0.80880296,9.819250730383596
968852.8328509406,-8.269891,5.259612,-0.89494765,9.841521571315358
968870.9164254704,-8.291427,5.281148,-0.8279462,9.865281587685546
968889.0,-8.35125,5.2955055,-0.8925547,9.928867455834142
968906.749276411,-8.370393,5.2739697,-0.859054,9.930569427071294
968924.8328509406,-8.375178,5.2189326,-0.8710185,9.906540124703932
968942.9164254704,-8.391929,5.2476473,-0.8710185,9.935841572487986
968961.0,-8.34407,5.2380757,-0.885376,9.891654657599329
968979.749276411,-8.308177,5.1973963,-0.8734115,9.838779447213712
968997.8328509406,-8.324927,5.199789,-0.7992313,9.847892458325777
969015.9164254704,-8.305784,5.259612,-0.7418015,9.858997703144182
969034.0,-8.305784,5.3194346,-0.7705164,9.893236469477626
969051.749276411,-8.32732,5.2572193,-0.7944455,9.87996744949915
969069.8328509406,-8.377571,5.2524333,-0.9021264,9.929027317545604
969087.9164254704,-8.425429,5.3026843,-0.9954498,10.0048605649368
969106.0,-8.312963,5.3218274,-0.9691278,9.917984140312617
969124.749276411,-8.231604,5.2955055,-0.9212696,9.83109457737186
969142.8328509406,-8.277069,5.3505425,-0.9547703,9.902008008521772
969160.9164254704,-8.217246,5.3649,-0.9284483,9.85734751747593
969179.0,-8.140674,5.21654,-0.82076746,9.703428361629248
969196.749276411,-8.138281,5.1902175,-0.8518753,9.689977650078317
969214.8328509406,-8.23639,5.2452545,-0.98827106,9.81465713562648
969232.9164254704,-8.279462,5.228504,-0.9212696,9.835419806156938
969251.0,-8.260319,5.228504,-0.86623275,9.814299936162007
969269.749276411,-8.341678,5.1519313,-0.8925547,9.844929754350499
969287.8328509406,-8.391929,5.0968943,-0.859054,9.856002111471438
969305.9164254704,-8.363214,5.106466,-0.8542682,9.836112930242477
969324.0,-8.461323,5.056215,-0.8446966,9.893068754567794
969341.749276411,-8.530717,5.0945015,-0.7968384,9.96805043643469
969359.8328509406,-8.609683,5.104073,-0.832732,10.043487697689583
969377.9164254704,-8.549861,5.1471453,-0.8231604,10.013531889536342
969396.0,-8.521146,5.080144,-0.77290934,9.950637218887604
969413.749276411,-8.420644,5.1088586,-0.82076746,9.883387111356349
969431.8328509406,-8.406286,5.254826,-0.8542682,9.950307269707968
969449.9164254704,-8.444572,5.317042,-0.80162424,10.011210382121813
969468.0,-8.413465,5.336185,-0.8614469,10.000167719691985
969486.749276411,-8.365606,5.379257,-0.832732,9.980641873301987
969504.8328509406,-8.348856,5.317042,-0.8446966,9.934175581524194
969522.9164254704,-8.308177,5.3026843,-0.8805902,9.895438593065572
969541.0,-8.300998,5.2500405,-0.8877689,9.86192814146663
969558.749276411,-8.272284,5.209361,-0.9404129,9.82102342057402
969576.8328509406,-8.250747,5.21654,-0.8518753,9.798612511797733
969594.9164254704,-8.250747,5.1830387,-0.9571632,9.790550424523687
969613.0,-8.2124605,5.2213254,-0.8805902,9.77149863107402
969630.749276411,-8.324927,5.2404685,-0.911698,9.87917571956412
969648.8328509406,-8.272284,5.2428617,-0.86623275,9.83202118382357
969666.9164254704,-8.289034,5.180646,-0.9475916,9.82064699858734
969685.0,-8.25314,5.156717,-0.93084127,9.776119656981711
969702.749276411,-8.231604,5.180646,-0.96434194,9.773860688969071
969720.8328509406,-8.207675,5.1926107,-0.9140909,9.755239461993861
969738.9164254704,-8.210068,5.209361,-0.90451926,9.7652861547758
969757.0,-8.284247,5.2428617,-0.9212696,9.84708509347919
969775.749276411,-8.324927,5.2739697,-0.90451926,9.896328664891746
969793.8328509406,-8.332106,5.262005,-0.93802,9.899119583865073
969811.9164254704,-8.348856,5.1662884,-0.8901618,9.858312247585273
969830.0,-8.389536,5.125609,-0.8997334,9.872471934994424
969847.749276411,-8.348856,5.1710744,-0.911698,9.862788662557632
969865.8328509406,-8.389536,5.2021823,-0.9212696,9.914421448254732
969883.9164254704,-8.444572,5.305077,-0.8877689,10.01213123460336
969902.0,-8.49961,5.3002915,-0.99305683,10.06591386833217
969919.749276411,-8.363214,5.2643976,-0.95237744,9.92795312684859
969937.8328509406,-8.315355,5.235683,-0.94280577,9.871493705233231
969955.9164254704,-8.272284,5.2476473,-0.92605543,9.840023547801387
969974.0,-8.279462,5.230897,-0.8877689,9.83361114005736
969991.749276411,-8.358428,5.2739697,-0.93323416,9.927184949676972
970009.8328509406,-8.430215,5.2452545,-0.9475916,9.973923478570798
970027.9164254704,-8.377571,5.2739697,-0.9691278,9.946741222596069
970046.0,-8.284247,5.2883267,-0.9188767,9.871143907002105
970064.749276411,-8.181353,5.281148,-0.87580436,9.777120966087512
970082.8328509406,-8.229211,5.2404685,-0.8925547,9.796891225001191
970100.9164254704,-8.279462,5.3242207,-0.8997334,9.884651600477786
970119.0,-8.265104,5.2763624,-0.89734054,9.846682911096368
970137.749276411,-8.205282,5.209361,-0.9571632,9.766281591234161
970155.8328509406,-8.188532,5.1399665,-0.93802,9.713454249469972
970173.9164254704,-8.284247,5.135181,-0.93562704,9.791538705318443
970192.0,-8.418251,5.185432,-0.9188767,9.929752731837178
970209.749276411,-8.44218,5.106466,-0.9404129,9.911143959404606
970227.8328509406,-8.5043955,5.0274997,-1.0361292,9.933481754803447
970245.9164254704,-8.612076,4.955713,-1.0457008,9.991017692470853
970264.0,-8.748472,5.0155354,-1.0600582,10.139777170669205
970281.749276411,-8.624041,5.130395,-0.9499845,10.079558848280328
970299.8328509406,-8.521146,5.1136446,-0.9284483,9.981047364590454
970317.9164254704,-8.446965,5.1686816,-0.9954498,9.952758788281951
970336.0,-8.315355,5.1519313,-0.96434194,9.829419121860033
970354.749276411,-8.255533,5.185432,-0.93562704,9.793769861431917
970372.8328509406,-8.265104,5.2883267,-0.92605543,9.855755784118301
970390.9164254704,-8.300998,5.3457565,-0.95237744,9.919208796144842
970409.0,-8.34407,5.329006,-0.885376,9.940105621889137
970426.749276411,-8.346463,5.3744717,-1.0193789,9.979354889281927
970444.8328509406,-8.406286,5.3744717,-0.9404129,10.021724741299938
970462.9164254704,-8.315355,5.355328,-0.8829831,9.929971093537715
970481.0,-8.279462,5.283541,-0.8734115,9.86043326413486
970498.749276411,-8.229211,5.211754,-0.8566611,9.778351685191641
970516.8328509406,-8.23639,5.223718,-0.8614469,9.79119199776736
970534.9164254704,-8.279462,5.21654,-0.81358874,9.819557384062623
970553.0,-8.353642,5.2261114,-0.86623275,9.891710378218043
970570.749276411,-8.389536,5.1830387,-0.95237744,9.907331994498552
970588.8328509406,-8.456537,5.2189326,-0.9547703,9.983078775682072
970606.9164254704,-8.391929,5.173467,-0.9858781,9.907632853976251
970625.0,-8.265104,5.075358,-0.9404129,9.744515348721372
970643.749276411,-8.150245,5.0346785,-0.8997334,9.622058062050073
970661.8328509406,-8.166995,5.104073,-0.78248096,9.662486479789584
970679.9164254704,-8.281855,5.1758604,-0.7968384,9.798653201181667
970698.0,-8.408679,5.1830387,-0.84708947,9.91399683583385
970715.749276411,-8.425429,5.1710744,-0.8279462,9.920350759649116
970733.8328509406,-8.487645,5.0921082,-0.9451987,9.942991710195376
970751.9164254704,-8.456537,5.0131426,-0.9547703,9.877054372942666
970770.0,-8.502003,4.974856,-0.89734054,9.891332937348357
970787.749276411,-8.497216,5.003571,-0.94280577,9.905921725041154
970805.8328509406,-8.528324,5.0131426,-0.93562704,9.936765416114538
970823.9164254704,-8.513967,5.15911,-0.8638398,9.992510658951185
970842.0,-8.387143,5.080144,-0.8638398,9.843690870971571
970860.749276411,-8.370393,5.0825367,-0.8734115,9.831505781396263
970878.8328509406,-8.32732,5.0586076,-0.8183746,9.777704547546062
970896.9164254704,-8.324927,5.0466433,-0.81119585,9.76888206806803
970915.0,-8.492431,5.104073,-0.87819725,9.947068708368187
970932.749276411,-8.59054,5.0849295,-0.9834852,10.031008356600513
970950.8328509406,-8.638398,5.075358,-1.1007377,10.07932548927602
970968.9164254704,-8.576182,5.049036,-1.0696299,10.009384114389556
970987.0,-8.511574,5.0921082,-1.014593,9.970248584344938
971005.749276411,-8.375178,5.072965,-0.9499845,9.837736069500403
971023.8328509406,-8.315355,5.0873227,-0.8710185,9.78696348502959
971041.9164254704,-8.286641,5.111252,-0.83751786,9.772141640203746
971060.0,-8.277069,5.1327877,-0.83751786,9.77531671966956
971077.749276411,-8.322535,5.1399665,-0.8614469,9.81967082996507
971095.8328509406,-8.284247,5.0705724,-0.95237744,9.759430086274081
971113.9164254704,-8.401501,5.080144,-0.99066395,9.867851700120275
971132.0,-8.430215,5.1016803,-1.0457008,9.90904420177616
971150.749276411,-8.387143,5.077751,-0.9499845,9.850390523765554
971168.8328509406,-8.377571,4.9963923,-0.911698,9.79687833540584
971186.9164254704,-8.365606,4.9652843,-0.9140909,9.77102727969405
971205.0,-8.411072,4.998785,-0.9188767,9.827426827771951
971222.749276411,-8.446965,5.0370717,-0.8997334,9.875871060987048
971240.8328509406,-8.492431,5.0466433,-0.9164838,9.921186191320992
971258.9164254704,-8.432608,5.001178,-0.9499845,9.85003196033334
971277.0,-8.396714,5.0155354,-0.9404129,9.82572021629639
971294.749276411,-8.432608,5.0370717,-0.9763065,9.870873485895112
971312.8328509406,-8.418251,5.077751,-0.9475916,9.876661123952394
971330.9164254704,-8.463716,5.1902175,-0.92366254,9.971258632377435
971349.0,-8.435001,5.2213254,-0.94280577,9.964956774749774
971366.749276411,-8.423037,5.180646,-0.9763065,9.93679121561016
971384.8328509406,-8.365606,5.1375737,-0.9499845,9.863087641322466
971402.9164254704,-8.277069,5.1902175,-1.0193789,9.822798087603779
971421.0,-8.312963,5.1447525,-0.9834852,9.825531805670586
971439.749276411,-8.341678,5.111252,-1.0576653,9.840078493081856
971457.8328509406,-8.411072,5.1471453,-1.0241647,9.914038040133908
971475.9164254704,-8.358428,5.130395,-1.014593,9.859699307933179
971494.0,-8.348856,5.0968943,-1.0050215,9.833198677417778
971511.749276411,-8.45893,5.0131426,-1.0337363,9.887047396001115
971529.8328509406,-8.468502,5.0418572,-1.014593,9.907837761330413
971547.9164254704,-8.552254,5.056215,-1.0600582,9.991500487620877
971566.0,-8.51636,5.104073,-0.9739136,9.976394967080742
971583.749276411,-8.5043955,5.1136446,-0.95237744,9.969008310948002
971601.8328509406,-8.423037,5.1926107,-0.92366254,9.938003354443122
971619.9164254704,-8.358428,5.1902175,-0.7992313,9.871192785038186
971638.0,-8.34407,5.180646,-0.75615895,9.850602697291222
971655.749276411,-8.375178,5.1973963,-0.7130866,9.882561779722769
971673.8328509406,-8.415857,5.206968,-0.8542682,9.933223996014801
971691.9164254704,-8.44218,5.128002,-0.98827106,9.926907240043978
971710.0,-8.5043955,5.0586076,-1.1007377,9.956197926688645
971728.749276411,-8.518753,5.104073,-1.0792016,9.989263734519204
971746.8328509406,-8.435001,5.178253,-0.96194905,9.94428941537835
971764.9164254704,-8.341678,5.1088586,-0.9404129,9.82692243141078
971783.0,-8.382357,5.0657864,-0.859054,9.831788977637283
971800.749276411,-8.382357,5.104073,-0.8997334,9.855201177847846
971818.8328509406,-8.403893,5.156717,-0.92366254,9.90304499946038
971836.9164254704,-8.38475,5.068179,-0.93802,9.842273744361158
971855.0,-8.44218,5.0274997,-0.93562704,9.870235779548494
971872.749276411,-8.403893,5.0203214,-0.9499845,9.835218099512955
971890.8328509406,-8.430215,5.0274997,-1.0528796,9.871820178255946
971908.9164254704,-8.480466,5.053822,-0.9739136,9.9200770201196
971927.0,-8.437394,5.0418572,-0.99784267,9.879556241577886
971945.749276411,-8.401501,5.1208234,-0.9739136,9.887191666355696
971963.8328509406,-8.308177,5.0370717,-0.9475916,9.761958113752613
971981.9164254704,-8.324927,5.0394645,-0.9284483,9.775613957591727
972000.0,-8.44218,5.0203214,-0.9739136,9.870285599310838
972018.749276411,-8.492431,5.1088586,-0.95237744,9.956346883911584
972036.8328509406,-8.478073,5.106466,-0.84230363,9.932934722809577
972054.9164254704,-8.478073,5.1208234,-0.8542682,9.941344388202625
972073.0,-8.492431,5.128002,-0.9739136,9.96826446790162
972090.749276411,-8.468502,5.080144,-0.9451987,9.92052366396158
972108.8328509406,-8.391929,5.0657864,-0.9284483,9.846252101040214
972126.9164254704,-8.372786,5.0825367,-0.9451987,9.840179129016127
972145.0,-8.375178,5.128002,-0.93802,9.865084518851727
972162.749276411,-8.35125,5.1902175,-0.92366254,9.87597523020413
972180.8328509406,-8.332106,5.2021823,-0.9212696,9.865871920593408
972198.9164254704,-8.332106,5.1208234,-0.93562704,9.82457228825778
972217.0,-8.365606,5.0945015,-0.9499845,9.84072049348921
972235.749276411,-8.358428,5.099287,-1.0193789,9.844042862631095
972253.8328509406,-8.406286,5.123216,-1.0265576,9.897818295087546
972271.9164254704,-8.437394,5.106466,-0.9499845,9.907980776658393
972290.0,-8.430215,5.0968943,-0.8997334,9.892238201876918
972307.749276411,-8.451752,5.099287,-0.97152066,9.918603337702333
972325.8328509406,-8.4541445,5.106466,-0.83991075,9.912315789158546
972343.9164254704,-8.403893,5.156717,-0.8925547,9.900192001473007
972362.0,-8.391929,5.106466,-0.89494765,9.864147132237916
972379.749276411,-8.348856,5.0825367,-0.93802,9.819137301004753
972397.8328509406,-8.365606,5.0968943,-0.9093051,9.83811623317668
972415.9164254704,-8.425429,5.199789,-0.9140909,9.9428980509721
972434.0,-8.413465,5.149538,-0.92366254,9.907435965347858
972451.749276411,-8.435001,5.1208234,-0.95237744,9.913581439228182
972469.8328509406,-8.446965,5.111252,-0.9667349,9.920216282199043
972487.9164254704,-8.48286,5.106466,-0.93084127,9.944917006123843
972506.0,-8.5043955,5.1016803,-0.92605543,9.960394739329402
972524.749276411,-8.408679,4.9868207,-1.0624512,9.83377169611797
972542.8328509406,-8.372786,5.0657864,-0.9571632,9.832695390565865
972560.9164254704,-8.35125,5.0131426,-0.9140909,9.783176246183935
972579.0,-8.363214,5.068179,-0.93323416,9.823477631838324
972596.749276411,-8.353642,5.125609,-0.93802,9.845561629762164
972614.8328509406,-8.406286,5.0921082,-0.9954498,9.878569255647463
972632.9164254704,-8.406286,5.156717,-0.9212696,9.904852962450738
972651.0,-8.423037,5.0849295,-0.89494765,9.8795238559143
