timestamp,accel_x,accel_y,accel_z,magnitude
50153.74236641221,9.145695,2.2565124,-5.8961253,11.113049932294864
50171.82824427481,8.535503,0.31825677,-5.7740874,10.310004080382248
50189.9141221374,7.8319883,-0.5264398,-4.5991693,9.097776533000985
50208.0,7.4563017,1.3974583,-2.6872358,8.048015965842975
50226.74236641221,7.757808,1.4859959,-3.9004402,8.809381506862831
50244.82824427481,8.636005,1.40703,-3.3189635,9.358196113314643
50262.9141221374,9.126552,0.677193,-3.7688303,9.897303854997638
50281.0,8.317748,-0.11485959,-1.6941789,8.489308962579003
50298.74236641221,8.32732,-2.2493336,-4.3287706,9.651011083503807
50316.82824427481,8.865725,2.6417706,-4.8073525,10.425481750878738
50334.9141221374,6.5924616,-4.2091255,-9.648206,12.42035291127675
50353.0,7.1715455,-3.5558615,-5.939198,9.967411336398056
50370.74236641221,7.8128448,-2.6489491,-4.4843097,9.389702268378478
50388.82824427481,8.147852,-4.761887,-3.0940301,9.931569980339413
50406.9141221374,9.552489,-4.1493025,-4.867175,11.495918832883792
50425.0,9.28209,-3.7855806,-4.611134,11.034055102869132
50443.74236641221,13.72572,-23.668255,8.281855,28.586199581344317
50461.82824427481,11.371099,-7.085401,-6.4704237,14.878547733435669
50479.9141221374,14.946104,-6.1856675,-5.185432,16.986383141386995
50498.0,14.905424,-3.6802926,-6.295741,16.59375102201042
50515.74236641221,10.997806,-3.4457877,-4.785816,12.479151592675013
50533.82824427481,5.6616206,-0.40679437,-7.7003784,9.566360696785095
50551.9141221374,11.12463,0.43311638,-6.9155045,13.106074352186644
50570.0,7.1524024,3.484074,-5.0849295,9.442041079606252
50587.74236641221,0.31107804,6.850896,0.17228939,6.860118744139405
50605.82824427481,5.4247227,6.831753,0.43311638,8.734303362233797
50623.9141221374,6.6857853,4.6948857,1.4118158,8.290651401843538
50642.0,6.401029,3.0868514,0.7106937,7.141912164101618
50659.74236641221,6.800645,4.3048415,-0.53840435,8.066617134849416
50677.82824427481,7.5711613,1.8401463,-2.6106627,8.217309874234552
50695.9141221374,7.2026534,3.9626558,-3.3620358,8.88167448797167
50714.0,5.2476473,4.5656686,-2.5340896,7.4030224942959215
50732.74236641221,3.1682103,4.9533195,-0.12203831,5.881141379291439
50750.82824427481,12.878632,4.000942,-1.5506045,13.574648186756379
50768.9141221374,5.5060816,5.4319015,-8.1622095,11.244738877068292
50787.0,4.6542063,4.8958898,-7.1236873,9.817244723693356
50805.74236641221,5.1088586,6.769537,-7.965991,11.635466471149488
50823.82824427481,2.8427749,10.9284115,-6.2407045,12.901857994169774
50841.9141221374,5.7453723,8.561825,-2.8571322,10.699409077351381
50860.0,5.417544,7.839167,-5.3505425,10.928432060004365
50877.74236641221,3.9147975,8.506788,-4.166053,10.24924773540767
50895.82824427481,5.3529353,1.61282,1.277813,5.734798230221801
50913.9141221374,6.0325212,5.6927285,-6.6666417,10.64154976304394
50932.0,5.673585,7.2146177,-9.078693,12.909800226867466
50949.74236641221,5.5802617,7.5089455,-9.664956,13.451206549763228
50967.82824427481,6.953791,3.9195836,-6.2287397,10.12499595651406
50985.9141221374,5.446259,3.5510757,-5.857839,8.751351522601095
51004.0,7.312727,3.1849606,-5.5946193,9.742674956705363
51022.74236641221,8.155031,2.6345918,-3.9482985,9.435818226772412
51040.82824427481,8.164602,3.3213565,-4.139731,9.738044340156666
51058.9141221374,9.124159,3.2423904,-7.236154,12.088229716340154
51077.0,8.44218,2.3019776,-6.0995226,10.666474580254365
51094.74236641221,7.133259,1.8592896,-3.5558615,8.184405463131174
51112.82824427481,3.6778998,5.886554,-1.8114314,7.173545054619927
51130.9141221374,2.4646955,7.786523,-0.416366,8.177898567676493
51149.0,2.895419,6.8413243,-1.5506045,7.588909254876602
51166.74236641221,2.861918,9.73435,-3.7472942,10.816208133286713
51184.82824427481,2.268477,10.1842165,-2.5963054,10.751979136348359
51202.9141221374,-1.4764243,11.978898,-3.43143,12.5478499294873
51221.0,-0.43790218,10.916447,-2.4694812,11.200844201229263
51238.74236641221,0.7872668,9.631455,-2.730308,10.041877125631006
51256.82824427481,1.0002356,10.019106,-3.8693323,10.786783058102479
51274.9141221374,1.6152129,9.667349,-4.0176926,10.592846795277564
51293.0,1.8186102,9.542917,-3.4505734,10.309270814040175
51311.74236641221,2.711165,10.641262,-4.2354474,11.769702090029117
51329.82824427481,1.3878866,11.316062,-1.0504867,11.44914890763416
51347.9141221374,1.4213874,9.5907755,-4.613527,10.737222555764037
51366.0,9.480701,6.109094,0.4139731,11.286101837204935
51383.74236641221,4.5106316,8.88726,-7.918133,12.72894410170017
51401.82824427481,6.11388,10.306255,-6.817395,13.786779731519976
51419.9141221374,3.2711053,14.027227,-9.810924,17.427491412334508
51438.0,7.1691527,12.356977,-8.760436,16.75818814563622
51455.74236641221,4.9844275,15.941554,-6.5278535,17.93294545676015
51473.82824427481,0.15314612,19.344269,-2.3091564,19.482207271202434
51491.9141221374,0.9188767,14.883888,0.9093051,14.939922762559146
51510.0,2.0339718,9.944926,-3.5271466,10.746132214269599
51528.74236641221,1.4931747,3.330928,-0.110073775,3.651954033369922
51546.82824427481,0.8710185,-4.381415,3.3189635,5.5651585192067525
51564.9141221374,-2.9528487,-6.166524,12.388085,14.149557719409207
51583.0,-7.542446,-6.0684147,26.451206,28.16700991387847
51600.74236641221,-11.593639,-0.60540575,37.018288,38.79603881629409
51618.82824427481,-16.568495,-2.215833,37.437046,40.999479943714285
51636.9141221374,-24.412449,-14.082264,24.031977,37.03800405086411
51655.0,-32.20854,-9.834852,-3.8908687,33.900637487135015
51672.74236641221,-40.002243,10.6771555,-24.843172,48.28420331354566
51690.82824427481,-37.81513,73.201454,-58.788967,101.21551049892554
51708.9141221374,-23.512714,78.36774,-55.998837,99.14746662273305
51727.0,-24.69242,17.04947,-21.569674,36.954713761624184
51745.74236641221,-20.25836,20.753693,-11.943005,31.364825704248286
51763.82824427481,-18.121492,13.723328,-8.411072,24.237663581517754
51781.9141221374,-19.021227,3.5917552,-0.99784267,19.383071789484987
51800.0,-19.442379,-2.110545,7.934883,21.10504370050806
51818.74236641221,-27.958738,-6.092344,36.874714,46.67496350881033
51836.82824427481,-31.050375,19.380163,66.575485,75.97375670935602
51854.9141221374,-29.370554,-2.81406,65.74276,72.06010594197123
51873.0,-42.057755,-23.383497,30.366003,56.901114451169086
51890.74236641221,-52.06011,-23.160957,-3.7018287,57.09981189191514
51908.82824427481,-68.530495,-14.800137,-19.40409,72.7460755566367
51926.9141221374,-68.408455,41.974,-78.36774,112.174132776655
51945.0,-58.556854,67.185684,-78.36774,118.67739446766082
51962.74236641221,-46.551636,13.407464,-19.535702,52.23464901596062
51980.82824427481,-31.954895,1.7611804,-4.493881,32.31736433103
51998.9141221374,-24.072655,3.6348274,-1.3496002,24.38290609580113
52017.0,-17.8152,-2.4311945,-0.3565433,17.983858897956388
52034.74236641221,-14.3885565,-6.164131,14.632633,21.427576103039332
52052.82824427481,-11.146166,-7.3581924,30.430613,33.2325475919428
52070.9141221374,-8.068886,-5.080144,34.144405,35.450742970292694
52089.0,-10.200967,1.7994668,36.960857,38.38492879599804
52107.74236641221,-18.205244,1.5769265,37.61412,41.817934306471166
52125.82824427481,-27.937202,-2.41923,22.60341,36.0174134691791
52143.9141221374,-41.763424,-6.762358,6.633141,42.8241944401739
52162.0,-49.80599,2.3498356,-24.187515,55.418356607737415
52179.74236641221,-55.288143,70.30125,-78.36774,118.91403273230014
52197.82824427481,-38.3296,58.724358,-61.871033,93.51862479292161
52215.9141221374,-32.596195,19.956854,-11.318456,39.860950769886024
52234.0,-23.90276,9.43763,-2.553233,25.82498391842266
52251.74236641221,-19.332304,5.2404685,1.8616825,20.116320483098157
52269.82824427481,-16.345955,1.093559,7.0183992,17.8225711803619
52287.9141221374,-12.562767,-4.893497,19.573988,23.76784453435864
52306.0,-7.2481184,-3.6635423,29.478235,30.576512247794597
52323.74236641221,-4.0799084,-8.801116,44.83831,45.8756944258498
52341.82824427481,-7.7673798,-12.452694,41.14127,43.68072657394774
52359.9141221374,-18.55461,-9.095444,20.413898,29.046994429090937
52378.0,-33.507893,-7.032757,11.856859,36.232908655894285
52396.74236641221,-49.19819,7.243333,-12.584304,51.296125383789025
52414.82824427481,-58.46353,64.86935,-63.79732,108.14857811670849
52432.9141221374,-41.820854,61.01198,-46.472668,87.35647888879187
52451.0,-36.357845,29.109728,-14.4483795,48.76499592385945
52468.74236641221,-32.383224,13.608468,0.15553902,35.12673896518068
52486.82824427481,-23.27821,4.9820347,-0.27997026,23.807018164872908
52504.9141221374,-21.720427,-2.5939124,4.218697,22.27785301547283
52523.0,-17.090149,-12.203832,12.907347,24.649671699737382
52540.74236641221,-7.9277043,-9.94014,22.347368,25.71108195341578
52558.82824427481,-4.405344,-12.890595,40.13864,42.38732022978052
52576.9141221374,-1.4668527,-12.88581,45.984516,47.77835773604879
52595.0,-8.60729,-17.092543,42.471725,46.58420217011958
52612.74236641221,-25.52515,-14.661348,27.394012,40.210947528698554
52630.82824427481,-46.48224,-17.635733,13.799901,51.59510617756968
52648.9141221374,-65.43886,-5.1973963,-16.635496,67.71999005880664
52667.0,-78.40124,66.07059,-61.201015,119.40536643516457
52685.74236641221,-74.67788,73.20624,-58.310383,119.73320384019918
52703.82824427481,-51.816032,5.386436,8.298605,52.752077778540105
52721.9141221374,-31.986002,1.0169859,7.2002606,32.80216969916342
52740.0,-25.458149,0.107680865,2.1057591,25.54531595150314
52758.74236641221,-19.662525,-8.437394,4.7212076,21.91105447232421
52776.82824427481,-13.522324,-15.711835,20.772835,29.346646816381355
52794.9141221374,-7.231368,-13.783151,43.048416,45.77591129348799
52813.0,1.562569,-12.584304,59.91842,61.24559889772143
52830.74236641221,-0.6867646,-21.009733,53.69207,57.66037553842329
52848.82824427481,-22.419155,-15.163858,27.350939,38.479019797025884
52866.9141221374,-42.986202,-15.147108,14.134908,47.71838290760628
52885.0,-59.171833,0.16750357,-16.245453,61.36162172890365
52903.74236641221,-69.09761,71.638885,-69.01626,121.11917146407058
52921.82824427481,-68.99472,78.36774,-42.07929,112.57193570108892
52939.9141221374,-46.398487,10.736979,-6.144988,48.019404322167034
52958.0,-33.634716,4.7977805,2.730308,34.08470918024239
52975.74236641221,-26.755106,2.8978117,-0.61497736,26.918603360375247
52993.82824427481,-22.644089,-7.5950904,5.5611186,24.52276911173286
53011.9141221374,-16.451242,-16.980076,23.364355,33.23942582046755
53030.0,-12.239725,-14.469915,38.99244,43.35435024696426
53047.74236641221,-7.903775,-17.85588,56.120872,59.42099278761176
53065.82824427481,-14.175588,-21.976467,50.06203,56.481140610550106
53083.9141221374,-26.465563,-21.09827,21.806572,40.26275703787624
53102.0,-46.817245,-16.324419,10.100465,50.600004726223204
53119.74236641221,-63.589138,-8.6551485,-10.373257,65.00841890038663
53137.82824427481,-71.17705,62.416615,-63.20149,113.82633532263448
53155.9141221374,-57.68823,78.36774,-53.32835,110.96552377636488
53174.0,-43.510246,19.143265,-18.150208,50.882572186201486
53192.74236641221,-31.447598,3.6659353,-8.233996,32.71374621961548
53210.82824427481,-28.83215,3.6013267,-7.4634805,29.999432807913436
53228.9141221374,-30.030996,-1.9693633,-1.1629534,30.117960972980466
53247.0,-28.030525,-11.036092,14.9413185,33.62660638432804
53264.74236641221,-24.314339,-11.701321,29.63856,40.08181923298345
53282.82824427481,-17.74102,-19.645775,57.80309,63.575919022371394
53300.9141221374,-12.732664,-31.404526,60.499897,69.34408787223451
53319.0,-30.89723,-22.656054,27.13797,46.95109178969874
53336.74236641221,-52.919163,-23.349997,7.317513,58.30271150663361
53354.82824427481,-73.83557,-12.81163,-15.709441,76.56772033314222
53372.9141221374,-75.62786,46.125698,-55.489147,104.52845860795237
53391.0,-66.0993,78.36774,-64.27112,121.00164048165628
53408.74236641221,-53.72557,26.688105,-23.275818,64.34637148965783
53426.82824427481,-36.941715,0.8542682,-10.911661,38.52900760566871
53444.9141221374,-32.00036,5.798016,-10.971483,34.322200816456174
53463.0,-32.10086,-5.5826545,-2.943277,32.71534996763292
53481.74236641221,-30.05014,-14.017655,12.452694,35.419982405081186
53499.82824427481,-28.324854,-17.79845,37.14511,49.98841239163249
53517.9141221374,-17.633339,-26.525387,65.71644,73.02863333010067
53536.0,-14.345484,-37.12118,60.727222,72.60558110520114
53553.74236641221,-33.180065,-26.656996,24.173157,48.94745824345622
53571.82824427481,-57.49201,-21.4261,5.9248405,61.640187459161254
53589.9141221374,-78.40124,-10.418722,-11.909504,79.98212604811715
53608.0,-78.40124,43.723217,-49.573875,102.54776068194914
53625.74236641221,-68.286415,78.36774,-68.64296,124.56481487089934
53643.82824427481,-52.2994,23.562965,-24.66131,62.43893633677086
53661.9141221374,-34.168335,-5.6424775,-5.1638956,35.01397559229643
53680.0,-24.946068,-0.6484781,-6.7145,25.84204602497263
53698.74236641221,-25.388756,-4.929391,-4.0057282,26.17123774815957
53716.82824427481,-26.72639,-9.152873,10.650834,30.191311191827772
53734.9141221374,-24.637383,-12.852309,29.530878,40.54941729755255
53753.0,-16.810179,-19.026012,52.39033,58.21784887940368
53771.74236641221,-11.540996,-30.655546,60.08353,68.43235832916349
53789.82824427481,-24.524916,-23.07242,28.595251,44.17574503295283
53807.9141221374,-47.035,-20.634047,12.249296,52.802465596729704
53826.0,-71.84946,-12.818809,-4.792995,73.1412302845673
53843.74236641221,-78.31749,25.967838,-50.834938,96.91309907209752
53861.82824427481,-71.48573,78.36774,-75.67572,130.30167636626513
53879.9141221374,-51.184303,38.9709,-33.31885,72.4479791693896
53898.0,-38.523426,4.7236004,-11.316062,40.42796075371846
53915.74236641221,-28.32246,0.9547703,-8.396714,29.556355201126507
53933.82824427481,-27.40837,-5.55394,-6.482388,28.70690421767983
53951.9141221374,-24.905388,-20.921196,8.549861,33.63145724794394
53970.0,-24.106155,-19.983175,25.965446,40.67724644003778
53987.74236641221,-21.785036,-16.207167,54.510445,60.89867543539194
54005.82824427481,-18.497179,-23.29496,69.00908,75.14688226936657
54023.9141221374,-27.181044,-20.995375,36.12095,49.84313346112041
54042.0,-45.154175,-23.859686,11.837716,52.42438035919812
54060.74236641221,-67.980125,-18.030563,-7.9324903,70.77657097848261
54078.82824427481,-78.22417,14.0367985,-42.66316,90.20087419478872
54096.9141221374,-66.19023,78.36774,-68.11173,123.1334925345391
54115.0,-54.41234,58.72675,-42.73016,90.74910734251716
54132.74236641221,-40.98573,1.4118158,-11.993256,42.72776002749928
54150.82824427481,-26.307632,0.052643977,-5.709479,26.92011187360074
54168.9141221374,-20.691477,-2.4264088,-9.447201,22.875189329066707
54187.0,-20.581402,-10.086107,0.8566611,22.935944082189124
54204.74236641221,-17.879808,-14.912603,13.914761,27.12367666891039
54222.82824427481,-16.767107,-14.170802,31.12695,38.089821774000896
54240.9141221374,-13.950654,-13.31414,49.028294,52.6845393214912
54259.0,-16.527817,-11.938218,54.665985,58.34432020189487
54277.74236641221,-28.992474,-12.534053,38.21235,49.57670547515219
54295.82824427481,-42.99338,-17.800844,13.5031805,48.45241639539061
54313.9141221374,-61.23452,-19.339483,-4.000942,64.34041948281852
54332.0,-77.30051,-6.420172,-24.936495,81.47647659082166
54349.74236641221,-78.40124,78.23613,-42.110397,118.4944387151233
54367.82824427481,-64.49366,78.36774,-46.21184,111.5189177184248
54385.9141221374,-48.28649,-6.271812,-12.553196,50.28422687183189
54404.0,-29.521307,-6.7312503,-1.1916683,30.302431765895026
54421.74236641221,-23.125063,0.26082698,-3.1658175,23.34221433178033
54439.82824427481,-19.760635,-4.991606,-4.814531,20.942266706649068
54457.9141221374,-18.712542,-15.405542,7.0925794,25.25459631355909
54476.0,-17.674019,-16.867609,22.029112,32.8963365209226
54493.74236641221,-17.286367,-12.098543,32.227688,38.52034657952706
54511.82824427481,-15.730978,-8.808294,40.332466,44.1786999092105
54529.9141221374,-23.019775,-3.3452854,46.221413,51.74475814200552
54548.0,-34.89099,-4.7092433,33.603607,48.66991431109309
54566.74236641221,-44.98667,-19.96164,12.074615,50.67606808520887
54584.82824427481,-59.80595,-26.558887,-7.678842,65.88695431223266
54602.9141221374,-77.94659,-2.239762,-32.342545,84.41994813740274
54621.0,-71.46659,78.36774,-71.117226,127.6974392572959
54639.74236641221,-56.17591,72.746796,-56.98232,108.14256324489502
54657.82824427481,-38.669395,-6.487174,-13.574967,41.49319540868587
54675.9141221374,-26.817322,-1.093559,-2.7398798,26.97909508965438
54694.0,-22.787664,0.24407662,-0.9475916,22.80866356921679
54711.74236641221,-21.885538,-2.7877378,2.6656997,22.22283083861219
54729.82824427481,-21.35192,-8.621648,17.16433,28.72022852052546
54747.9141221374,-18.389498,-8.760436,39.631344,44.55964881872877
54766.0,-13.318927,-16.290918,59.86099,63.45176080688505
54783.74236641221,-17.705128,-19.741491,51.41163,57.84767690803465
54801.82824427481,-33.732826,-18.377535,23.790293,45.18423822140139
54819.9141221374,-53.184776,-13.323712,4.1612673,54.98597862338333
54838.0,-65.977264,-8.944691,-20.49765,69.66462888391553
54856.74236641221,-71.26798,58.621464,-71.8351,116.9439293285192
54874.82824427481,-57.08043,78.36774,-58.73632,113.35622368813677
54892.9141221374,-42.73734,12.5173025,-15.472544,47.14406335885826
54911.0,-28.545,6.793466,-9.786994,30.931431535724176
54928.74236641221,-24.10855,2.8906329,-10.138752,26.312967027353004
54946.82824427481,-23.83097,-5.7501583,-2.9839563,24.695818407501072
54964.9141221374,-23.603645,-13.18971,11.395028,29.341901272598356
54983.0,-22.97431,-12.502945,42.411903,49.82882769773472
55000.74236641221,-13.665898,-21.03127,67.50633,72.0151072763778
55018.82824427481,-14.584775,-20.61969,47.65237,53.931768412630646
55036.9141221374,-29.198265,-17.379692,22.852272,40.94897689304426
55055.0,-46.848354,-11.064807,5.388829,48.437977914522875
55072.74236641221,-56.7526,-3.594148,-22.82595,61.27641879229239
55090.82824427481,-59.090473,52.856945,-62.883232,101.19210196879288
55108.9141221374,-50.693756,78.36774,-57.307755,109.52414506963824
55127.0,-42.380795,27.544765,-23.026955,55.54355516447678
55145.74236641221,-30.208073,7.3342633,-12.47423,33.4951564650765
55163.82824427481,-22.227724,-2.0220072,-9.160052,24.12606018353871
55181.9141221374,-19.712776,-11.220346,-3.6874714,22.980146807879837
55200.0,-19.798922,-14.445986,12.000434,27.289086464420826
55217.74236641221,-19.277267,-15.36247,28.710112,37.840309704635516
55235.82824427481,-17.23851,-19.911388,54.199368,60.25944814471892
55253.9141221374,-16.666605,-25.692654,56.309914,64.09909988819763
55272.0,-27.173864,-22.17508,32.404762,47.75166654655667
55289.74236641221,-42.387974,-19.37059,7.678842,47.23266572229161
55307.82824427481,-57.482437,-13.168173,-15.015498,60.85307324864458
55325.9141221374,-64.28548,12.876239,-47.26233,80.82170690256685
55344.0,-66.29313,78.36774,-64.56066,121.26153791512006
55361.74236641221,-48.43246,63.732716,-41.16759,90.01295871593354
55379.82824427481,-39.32266,13.804687,-18.918331,45.76837576830895
55397.9141221374,-27.750555,-1.6774286,-10.122002,29.586517098234577
55416.0,-22.58666,-7.939669,-7.707557,25.151580242470054
55434.74236641221,-23.148993,-16.767107,3.046172,28.745276445306317
55452.82824427481,-21.708462,-19.116943,16.891539,33.49684943183782
55470.9141221374,-21.65821,-18.31771,38.054417,47.463198514829244
55489.0,-17.611803,-25.671118,60.172066,67.74850131913686
55507.74236641221,-20.708227,-28.767542,48.147705,59.78798905275472
55525.82824427481,-27.865416,-29.932888,16.745571,44.19132653575406
55543.9141221374,-42.694267,-27.805592,-1.4764243,50.97186684683408
55562.0,-62.23236,-13.82383,-26.96329,69.21693372768401
55579.74236641221,-78.40124,73.969574,-78.36774,133.26573071869106
55597.82824427481,-61.093338,78.36774,-60.641075,116.4097873799513
55615.9141221374,-49.061794,30.160213,-26.656996,63.46096055409043
55634.0,-31.873535,-6.324456,-9.923389,33.97638336164522
55652.74236641221,-26.977646,-5.565904,-6.6211767,28.330419197942604
55670.82824427481,-28.851294,-10.375649,4.012907,30.92175092449142
55688.9141221374,-27.489729,-15.735764,16.642675,35.78097399893919
55707.0,-23.87165,-20.629261,39.131226,50.26604153294445
55724.74236641221,-17.903738,-31.435633,71.79921,80.39819284727383
55742.82824427481,-19.609882,-33.524643,55.38625,67.64677264580973
55760.9141221374,-34.3143,-28.92308,18.918331,48.70235095970174
55779.0,-57.176147,-24.768991,-0.8614469,62.3165852055872
55796.74236641221,-71.04066,-12.4574795,-33.87879,79.68523439504096
55814.82824427481,-74.13947,56.790886,-71.26559,117.47616806226698
55832.9141221374,-59.10483,78.36774,-61.70592,115.94181370447376
55851.0,-52.32572,33.486355,-27.224115,67.82676007474963
55868.74236641221,-40.775154,5.6640134,-15.750121,44.076757401534614
55886.82824427481,-33.409782,-4.402951,-13.498395,36.301600217785854
55904.9141221374,-28.430141,-15.740549,-6.4297442,33.12671747364528
55923.0,-28.8489,-18.016205,6.7910733,34.6837332243517
55941.74236641221,-29.65531,-18.856115,26.984825,44.30768854690967
55959.82824427481,-22.342583,-13.874081,42.83066,50.260785655837594
55977.9141221374,-20.947517,-12.266047,64.63245,69.0406255075517
55996.0,-21.713247,-14.869531,51.354202,57.70461082530385
56013.74236641221,-35.5634,-19.86353,24.022404,47.290497328322914
56031.82824427481,-52.469296,-25.446184,4.2067323,58.46564717457026
56049.9141221374,-73.00284,-15.439043,-21.619925,77.68654873159879
56068.0,-78.40124,70.84683,-78.36774,131.55808765444297
56085.74236641221,-78.40124,78.36774,-65.48672,128.75079651250164
56103.82824427481,-57.64755,4.668564,-13.70897,59.43880356539401
56121.9141221374,-34.87424,-10.701085,5.647263,36.913648087746544
56140.0,-26.07552,-3.5821834,8.6048975,27.69131708978722
56157.74236641221,-18.071241,-5.0131426,9.617098,21.075813719750414
56175.82824427481,-15.692691,-4.9030685,12.239725,20.496621663405854
56193.9141221374,-10.502474,-13.63479,25.659153,30.896627504343982
56212.0,-2.112938,-22.56273,48.733967,53.74514705163465
56230.74236641221,-0.19861138,-28.164528,47.664337,55.36396938074996
56248.82824427481,-11.416565,-24.020012,26.168842,37.310953143820015
56266.9141221374,-33.560535,-17.066221,14.579989,40.37501068665106
56285.0,-51.275234,-4.735565,-5.522832,51.78877166842447
56302.74236641221,-56.482204,46.850746,-62.562584,96.43292324829311
56320.82824427481,-76.216515,78.36774,-43.13456,117.52042417318968
56338.9141221374,-49.88735,25.072891,-18.8274,58.92256396220704
56357.0,-29.973566,-1.5506045,-3.0916374,30.172458548896127
56374.74236641221,-20.705833,-3.4721096,-1.3615648,21.03903334288199
56392.82824427481,-15.766871,-9.0978365,1.6774286,18.280552968098945
56410.9141221374,-14.244982,-11.825752,13.373963,22.839238360137955
56429.0,-11.868824,-11.323241,27.530407,32.04696677491812
56447.74236641221,-6.168917,-13.88126,47.925163,50.27490591455202
56465.82824427481,-4.9844275,-18.758007,57.77198,60.94513120205095
56483.9141221374,-15.802765,-18.96619,34.99389,42.82541397457151
56502.0,-33.34039,-18.34882,16.872395,41.62857808982341
56520.74236641221,-49.327408,-14.055943,0.2680057,51.291661512110764
56538.82824427481,-54.53677,9.370628,-55.54897,78.4076273025028
56556.9141221374,-78.40124,67.79826,-52.928734,116.38216949089734
56575.0,-71.44506,42.96945,-12.333048,84.27855186627498
56592.74236641221,-38.75793,-2.5651975,3.6132913,39.010424890246476
56610.82824427481,-21.639069,-6.166524,10.782444,24.950679831268584
56628.9141221374,-10.67237,-8.267497,9.827674,16.698328189138728
56647.0,-2.759023,-11.596032,15.154287,19.280367749032226
56664.74236641221,2.9767776,-8.48286,18.437357,20.51234388861767
56682.82824427481,8.805902,-11.710893,20.739334,25.393087635311485
56700.9141221374,11.323241,-15.786015,22.443085,29.683431753109865
56719.0,2.1560102,-13.383535,20.844622,24.86494832895522
56736.74236641221,-12.7087345,-9.731957,18.755613,24.65757365693365
56754.82824427481,-26.810143,0.33022133,-1.9956853,26.886345486582442
56772.9141221374,-45.240322,33.632324,-37.164257,67.52038174260205
56791.0,-52.959843,51.58392,-40.157784,84.13259409373816
56809.74236641221,-32.20854,17.609411,-22.665625,43.141765857914834
56827.82824427481,-15.312219,2.526911,-10.342149,18.649648142634835
56845.9141221374,-8.523539,-3.493646,-3.3620358,9.806098315758344
56864.0,-2.8212388,-8.238783,3.0868514,9.239349828499645
56881.74236641221,-3.8501892,-8.633613,12.074615,15.334913032286511
56899.82824427481,-7.1165085,-6.92029,30.672297,32.238562470601586
56917.9141221374,-6.1569524,-7.518517,42.76127,43.85159487120229
56936.0,-1.87604,-15.833873,46.67128,49.319767204439735
56953.74236641221,-11.641498,-25.125534,34.833565,44.499372861630135
56971.82824427481,-29.085798,-30.691439,15.199752,44.93306726731471
56989.9141221374,-47.52794,-24.974781,-7.6668777,54.23491292800532
57008.0,-68.36299,21.653425,-58.877502,92.78431687376228
57026.74236641221,-78.40124,78.36774,-58.975613,125.56424664278829
57044.82824427481,-51.878246,4.5537043,-17.530445,54.9491140309503
57062.9141221374,-32.364082,-1.3639576,-7.441944,33.23667724873318
57081.0,-29.70556,-0.2680057,-1.0074143,29.723845739417317
57098.74236641221,-20.406721,-6.7145,4.6948857,21.99001418730569
57116.82824427481,-6.147381,-13.33807,13.369178,19.860244834335376
57134.9141221374,-1.0457008,-12.713521,22.158329,25.567922294406376
57153.0,2.5412683,-14.02962,28.475607,31.845697918799548
57170.74236641221,3.3213565,-16.803001,37.23365,40.98434998787456
57188.82824427481,-3.4816813,-16.192808,38.736397,42.128821347638514
57206.9141221374,-18.210032,-14.632633,29.896994,37.941395127087105
57225.0,-24.410055,-30.449755,14.9915695,41.806524858404345
57242.74236641221,-42.117577,-23.412212,-13.869295,50.14358689683954
57260.82824427481,-65.345535,29.018797,-64.2783,96.14483540291404
57278.9141221374,-78.40124,78.36774,-57.36758,124.8170514845692
57297.0,-52.13429,5.1638956,-16.89393,55.045934295065784
57315.74236641221,-26.786213,-8.083243,1.6319634,28.026832300803413
57333.82824427481,-21.768286,0.37090075,1.119881,21.800228810687
57351.9141221374,-16.214346,-4.175625,3.5223608,17.10987685384432
57370.0,-9.782208,-7.468266,15.02507,19.422134766984808
57388.74236641221,-4.8456388,-8.664721,19.614668,21.983921536844388
57406.82824427481,4.170839,-11.342384,27.1954,29.759626239712368
57424.9141221374,9.356271,-15.948732,35.05371,39.63160915478156
57443.0,3.6874714,-19.631418,34.153976,39.56619889027903
57460.74236641221,-11.253847,-20.827871,24.283232,33.91348756848629
57478.82824427481,-33.393032,-22.861843,16.427315,43.676253612448235
57496.9141221374,-54.402767,-10.579046,-13.043742,56.93607359916004
57515.0,-76.33616,57.908375,-60.291714,113.20636022655273
57532.74236641221,-78.40124,78.36774,-45.556183,119.84833297036171
57550.82824427481,-48.532963,-4.8767467,-9.222268,49.641528814080196
57568.9141221374,-23.28778,-13.232781,3.7903664,27.051692512088962
57587.0,-14.285662,-7.85831,3.4984317,16.675496969922932
57605.74236641221,-8.387143,-11.753964,16.39142,21.84441546556339
57623.82824427481,-2.7446656,-10.086107,26.712032,28.684410351971618
57641.9141221374,5.9559484,-15.125572,39.86585,43.0527844151008
57660.0,11.629534,-19.786957,39.107296,45.3447938445928
57677.74236641221,1.9430413,-20.691477,29.26048,35.889947335785195
57695.82824427481,-16.71207,-17.039898,17.348583,29.50635083576404
57713.9141221374,-30.318146,-15.51083,1.9286839,34.110051975221836
57732.0,-43.43607,9.507024,-46.147232,64.0830921822855
57749.74236641221,-70.77504,59.832275,-49.358517,105.00128865455183
57767.82824427481,-51.30395,28.413391,-18.57136,61.516757765433155
57785.9141221374,-30.858942,5.886554,-2.732701,31.534005043915386
57804.0,-24.290411,6.2837768,-6.3483853,25.880724745230676
57821.74236641221,-22.811592,-0.3804724,-4.6733494,23.28848821705922
57839.82824427481,-16.532602,-11.5314245,7.9516335,21.668621442259
57857.9141221374,-10.629298,-14.699635,19.382555,26.547027770243016
57876.0,-5.135181,-11.332812,23.941046,26.981037698802858
57894.74236641221,-1.7922882,-11.864038,33.847687,35.91146905804986
57912.82824427481,0.82076746,-14.469915,37.67873,40.37002345482995
57930.9141221374,-5.9798775,-14.455558,30.131498,33.95039416163492
57949.0,-18.133457,-22.1679,16.37467,32.99042089440128
57966.74236641221,-30.38754,-24.737885,-0.28236315,39.18475813978316
57984.82824427481,-47.920376,0.7776951,-42.313793,63.93296742445785
58002.9141221374,-78.10213,72.32326,-44.81199,115.49333788286059
58021.0,-60.803795,41.18195,-18.717327,75.78517547798813
58038.74236641221,-31.784998,-0.2943277,-2.2804415,31.86805830435726
58056.82824427481,-18.561789,1.9956853,-9.418487,20.910061407521646
58074.9141221374,-19.037977,-0.4498667,-7.4706593,20.45623862485414
58093.0,-15.94634,-9.01887,7.324692,19.73010107341987
58111.74236641221,-12.7087345,-9.0069065,21.55053,26.590630691507346
58129.82824427481,-5.3194346,-9.999963,29.38491,31.4923574883359
58147.9141221374,0.43790218,-10.155502,34.96517,36.412760020632234
58166.0,2.8044882,-14.335913,35.49879,38.38681605801148
58183.74236641221,-4.6996713,-15.508437,26.080305,30.70473640017184
58201.82824427481,-18.434963,-15.872159,15.5754385,28.88542152366713
58219.9141221374,-32.316223,-15.596975,4.737958,36.1946424784956
58238.0,-48.717216,5.199789,-36.175983,60.9024358006432
58256.74236641221,-73.412025,67.83894,-57.934696,115.53300911660114
58274.82824427481,-57.386723,31.411705,-25.00589,70.03731664175787
58292.9141221374,-30.243965,0.002392908,-5.362507,30.715694782509523
58311.0,-23.163351,-0.9786994,-0.43072346,23.188018560535863
58328.74236641221,-18.260283,-3.7640445,8.336892,20.423264539679575
58346.82824427481,-12.687199,-3.7425082,11.564925,17.57039772880208
58364.9141221374,-6.7288575,-7.2768335,16.657034,19.382636836075335
58383.0,0.234505,-11.990863,25.144678,27.858403037566205
58401.74236641221,3.6324344,-16.156916,36.946503,40.488079705394384
58419.82824427481,1.1677392,-19.782171,36.726353,41.7315577110784
58437.9141221374,-10.966698,-20.906837,25.991768,35.11319270777861
58456.0,-27.92763,-16.585245,11.876003,34.58413388221446
58473.74236641221,-43.8979,-12.790093,-7.8989897,46.400497213277305
58491.82824427481,-61.248875,41.72514,-55.0321,92.30895962578728
58509.9141221374,-75.06313,68.42999,-36.977608,108.0947755916014
58528.0,-47.6093,8.578575,-16.39142,51.07754932587335
58545.74236641221,-28.66704,-3.8980472,-4.0033355,29.206517242913236
58563.82824427481,-21.686926,-1.8521109,-3.017457,21.97403287660742
58581.9141221374,-16.204773,-6.606819,0.5910483,17.509827622601623
58600.0,-9.983212,-12.962383,10.658012,19.526420938507318
58617.74236641221,-7.2457256,-15.00832,22.732626,28.187275383562195
58635.82824427481,-6.6307483,-13.747257,45.53465,48.02455880759866
58653.9141221374,-5.5395823,-21.045628,60.53818,64.33099305688711
58672.0,-12.696771,-27.312653,38.528214,48.90411313739005
58690.74236641221,-27.96831,-29.002047,10.399578,41.61125228858647
58708.82824427481,-45.93187,-24.675669,-6.798252,52.58176064520819
58726.9141221374,-59.41112,14.233017,-60.03328,85.6519390331304
58745.0,-78.40124,78.36774,-53.35946,123.0263755368612
58762.74236641221,-59.40873,11.024128,-18.33207,63.142643188721394
58780.82824427481,-32.87138,-7.207439,-4.3407354,33.93105927989774
58798.9141221374,-25.979803,-3.153853,-5.927233,26.833356921948976
58817.0,-21.280132,-8.956655,-5.1375737,23.65291420204666
58834.74236641221,-18.528288,-14.618276,4.0488005,23.945442884021173
58852.82824427481,-14.675705,-18.894402,27.597408,36.5238507348704
58870.9141221374,-8.724543,-22.239687,62.24672,66.67364906149369
58889.0,-4.630277,-27.52323,65.03685,70.77259012253352
58906.74236641221,-17.70034,-28.920687,34.41959,48.31579812479215
58924.82824427481,-38.521034,-25.984589,9.435237,47.41405512265583
58942.9141221374,-52.17497,-27.183435,-12.352192,60.11441823809817
58961.0,-68.50657,26.640245,-69.91838,101.44669855963438
58979.74236641221,-78.40124,78.36774,-58.171597,125.18862489769431
58997.82824427481,-47.413082,6.9466124,-16.125807,50.55983999159617
59015.9141221374,-32.242043,0.27997026,-6.7025356,32.93253260272585
59034.0,-24.371769,-3.1873536,-5.281148,25.14026394767362
59051.74236641221,-21.64864,-8.004277,1.225169,23.113483147740627
59069.82824427481,-14.568025,-16.11863,14.625454,26.190484726015306
59087.9141221374,-12.689591,-14.410092,38.465996,42.99196808088414
59106.0,-9.624276,-24.563202,74.48166,79.01579118994242
59123.74236641221,-7.884632,-28.918295,43.589214,52.900423293393835
59141.82824427481,-19.916174,-30.148249,15.931982,39.48922580923309
59159.9141221374,-37.018288,-25.364826,-0.7346228,44.880593970217234
59178.0,-43.392994,-22.713484,-30.61726,57.76046133480837
59196.74236641221,-78.36056,47.343685,-74.790344,118.21758510700158
59214.82824427481,-68.46349,50.05485,-56.7526,102.04702385793816
59232.9141221374,-50.373108,15.214109,-24.979568,58.24858744819628
59251.0,-45.62797,3.5582542,-18.087992,49.211261656909194
59269.74236641221,-34.060654,-14.6398115,-14.938925,39.970285360738586
59287.82824427481,-27.379654,-26.467957,0.8805902,38.09164790362713
59305.9141221374,-24.297588,-27.733805,22.696733,43.29755664317627
59324.0,-19.238981,-22.222937,43.40496,52.42125400470624
59341.74236641221,-11.210774,-29.588308,77.20239,83.43475562194713
59359.82824427481,-7.7243075,-39.89217,58.846397,71.5118772900353
59377.9141221374,-22.139185,-49.03308,19.877888,57.35431002192571
59396.0,-47.377186,-55.307285,-4.6709566,72.9747309889451
59413.74236641221,-78.40124,-40.176926,-33.76154,94.34395263883466
59431.82824427481,-78.40124,74.86691,-77.33879,133.16567532645115
59449.9141221374,-78.40124,52.237183,-57.22161,110.2260875306077
59468.0,-41.550457,-17.310297,-14.0870495,47.16494273030032
59486.74236641221,-27.17865,-17.224152,-5.860232,32.706157631788976
59504.82824427481,-25.288252,-13.539074,-6.8867893,29.49966238545069
59522.9141221374,-27.79602,-18.68622,-1.6319634,33.5329218868225
59541.0,-23.084385,-30.571795,16.731213,41.80259524002809
59558.74236641221,-14.204303,-32.828304,50.409,61.810412134463434
59576.82824427481,-2.5484471,-34.663666,70.15767,78.29535735284662
59594.9141221374,-9.030835,-39.44709,52.73491,66.47254788988779
59613.0,-26.10902,-43.579643,20.28229,54.7013482193259
59630.74236641221,-45.96537,-45.18289,-4.7594943,64.62941724927381
59648.82824427481,-68.956436,-46.841175,-26.511028,87.47525562591689
59666.9141221374,-78.40124,42.59137,-78.36774,118.75302903388233
59685.0,-78.40124,78.36774,-64.32616,128.1643943011896
59702.74236641221,-48.602356,-11.227525,-23.512714,55.14611542096285
59720.82824427481,-28.04249,-18.334461,-17.226545,37.67343305563811
59738.9141221374,-24.663704,-18.70297,-13.711364,33.85411178218994
59757.0,-22.739805,-21.397385,-7.001649,31.999529762098867
59775.74236641221,-19.973604,-24.675669,8.126316,32.76996351963537
59793.82824427481,-18.03774,-25.419863,30.935516,43.91509591737931
59811.9141221374,-12.488587,-22.627338,55.403,61.134717135379084
59830.0,-11.205989,-26.161665,61.313484,67.59696905378674
59847.74236641221,-20.126749,-27.973095,36.946503,50.52350099821899
59865.82824427481,-31.880714,-29.99989,8.286641,44.55380729213584
59883.9141221374,-41.887856,-30.825441,-21.11502,56.130600947447704
59902.0,-51.792103,-2.2565124,-60.748756,79.86191293051712
59919.74236641221,-65.77865,53.18956,-76.18062,113.83956672616291
59937.82824427481,-57.192898,34.4172,-46.960823,81.61427653490371
59955.9141221374,-37.958702,-3.5726118,-26.518208,46.44181271364811
59974.0,-26.300453,-19.602703,-9.093051,34.03914466316713
59991.74236641221,-21.785036,-20.500044,-2.7781663,30.042599846113312
60009.82824427481,-19.416056,-23.823793,7.530482,31.642763827679605
60027.9141221374,-17.260046,-26.214308,17.65009,36.00867685501759
60046.0,-15.752514,-24.654133,35.800297,46.23450266402889
60064.74236641221,-17.480194,-20.004711,52.83302,59.13606046053082
60082.82824427481,-21.04084,-22.359333,52.25872,60.610482064976914
60100.9141221374,-24.048727,-35.18532,29.724705,51.960620677200865
60119.0,-32.57705,-43.80697,1.926291,54.626233663873265
60137.74236641221,-53.37621,-52.043358,-23.562965,78.18404073384471
60155.82824427481,-78.40124,-1.5194967,-65.36468,102.08626105045337
60173.9141221374,-78.40124,78.36774,-72.732445,132.58305194074853
60192.0,-63.29481,12.998277,-32.29469,72.23666091466943
60209.74236641221,-30.849371,-20.519186,-6.558961,37.62632927349887
60227.82824427481,-20.25836,-13.86451,-1.2443122,24.57995321966193
60245.9141221374,-18.224388,-11.004984,-1.5218896,21.343714268359857
60264.0,-19.861137,-12.0147915,4.8073525,23.705075738763156
60281.74236641221,-14.989177,-18.13585,16.508673,28.742316652990205
60299.82824427481,-10.124394,-18.097565,27.654839,34.566100921457455
60317.9141221374,-9.272519,-16.874788,47.810303,51.54185824746828
60336.0,-14.000905,-20.964268,56.319485,61.70421593586676
60354.74236641221,-24.532093,-28.458857,31.574423,49.07824687669708
60372.82824427481,-39.231728,-33.79504,7.5328746,52.325685950658205
60390.9141221374,-54.531982,-38.372673,-12.766165,67.89089823253539
60409.0,-70.282104,-0.43790218,-53.72318,88.46437684344171
60426.74236641221,-78.40124,73.65132,-69.80352,128.23339181223585
60444.82824427481,-58.073486,14.747493,-31.37581,67.63475274689297
60462.9141221374,-30.389933,-13.249532,-8.095208,34.12668338011734
60481.0,-21.89511,-9.401736,-2.3665862,23.945546808703835
60498.74236641221,-17.752985,-8.7556505,0.2368979,19.79611104998655
60516.82824427481,-14.970033,-10.531189,3.984192,18.731834284652265
60534.9141221374,-12.86906,-14.285662,13.204067,23.32466997413539
60553.0,-7.992313,-19.547667,39.246086,44.56729314814008
60570.74236641221,-4.3120203,-26.39617,68.85114,73.8635958306669
60588.82824427481,-8.621648,-29.514128,47.267113,56.38791126820586
60606.9141221374,-24.477057,-34.37652,17.551981,45.70496125932075
60625.0,-49.96392,-32.16547,3.1203523,59.50417935375141
60643.74236641221,-59.518803,-26.98004,-27.315046,70.82741140925965
60661.82824427481,-77.93462,34.36216,-61.55995,105.09134349894143
60679.9141221374,-72.93584,50.401825,-49.89931,101.73456570071122
60698.0,-44.50809,-2.7231295,-13.036563,46.4579108933542
60715.74236641221,-31.67014,-5.3505425,-4.3120203,32.40709168888067
60733.82824427481,-22.720663,-5.8482676,-3.933941,23.78879258962631
60751.9141221374,-15.881731,-7.083008,-7.262476,18.84520998914581
60770.0,-13.177745,-12.072222,-2.2445478,18.01192666343037
60787.74236641221,-11.34717,-19.248552,10.519224,24.696540135569194
60805.82824427481,-7.609448,-25.453363,37.073326,45.60930702802608
60823.9141221374,-8.79633,-20.105213,55.654255,59.82466975127647
60842.0,-16.049234,-25.4749,55.63033,63.255687949034716
60860.74236641221,-30.476078,-29.75342,27.271973,50.574873635741426
60878.82824427481,-46.65692,-31.600744,4.2091255,56.508335161413896
60896.9141221374,-58.662144,-35.364788,-16.692926,70.50226342042612
60915.0,-73.349815,13.670684,-60.186424,95.86182032211708
60933.74236641221,-78.40124,78.36774,-66.8411,129.44492943122648
60951.82824427481,-56.845924,0.72983694,-17.726664,59.550200284647744
60969.9141221374,-36.61628,-9.045193,-6.144988,38.21424282863384
60988.0,-29.526093,-5.2213254,-10.806373,31.872089736828727
61005.74236641221,-22.658447,-12.79488,-7.674056,27.129417799822853
61023.82824427481,-19.10737,-19.516558,1.222776,27.340131777854328
61041.9141221374,-15.5754385,-26.444027,21.229881,37.317404729136406
61060.0,-10.985841,-24.713955,48.31042,55.365738094923884
61077.74236641221,-8.865725,-28.461248,69.18376,75.33283723072383
61095.82824427481,-15.1830015,-33.304493,47.623657,60.06434461966351
61113.9141221374,-28.43732,-37.24083,13.053313,48.64102762223748
61132.0,-45.218784,-38.734005,-5.0921082,59.757770504756856
61150.74236641221,-57.125896,-26.343525,-45.087173,77.39639831646153
61168.82824427481,-78.40124,71.21773,-74.99374,129.7797385537438
61186.9141221374,-78.40124,40.143425,-36.72157,95.42915019810836
61205.0,-53.637035,-9.729565,-5.053822,54.74611470678201
61222.74236641221,-29.93528,-15.257182,0.36611494,33.601140328995015
61240.82824427481,-18.944653,-10.547939,-8.401501,23.25390533848306
61258.9141221374,-12.825988,-16.353134,-1.4548881,20.833810481561496
61277.0,-10.33497,-20.507223,9.093051,24.699015700250687
61294.74236641221,-7.528089,-28.056847,37.353294,47.31941842651668
61312.82824427481,2.553233,-36.341095,68.45871,77.54862448435442
61330.9141221374,-2.5436614,-37.8247,58.587963,69.78343321947709
61349.0,-19.64099,-43.019703,23.967367,53.01790278105121
61366.74236641221,-44.230515,-48.21949,0.27518442,65.43342723326003
61384.82824427481,-68.86072,-50.227142,-21.079128,87.80030859653597
61402.9141221374,-78.40124,45.960587,-78.36774,120.00263606950377
61421.0,-78.40124,58.17638,-63.704,116.57377595086298
61439.74236641221,-52.79952,-20.992983,-4.5895977,57.00490377604837
61457.82824427481,-34.051083,-12.3833,-3.0964231,36.364958522966894
61475.9141221374,-25.048962,-5.9798775,-14.261732,29.438179832188577
61494.0,-17.875023,-15.254789,-9.509417,25.350622208635016
61511.74236641221,-13.912368,-22.038683,-0.014357449,26.062573508352063
61529.82824427481,-11.540996,-27.71466,24.582344,38.80191495431575
61547.9141221374,-8.066493,-26.164057,56.786102,63.04195086109488
61566.0,-8.19571,-23.86208,71.2273,75.5638590175257
61583.74236641221,-15.951125,-33.019737,48.138134,60.51463761204185
61601.82824427481,-31.129341,-40.169746,16.006163,53.28078095130895
61619.9141221374,-50.169712,-47.891663,-2.1225095,69.39104000983198
61638.0,-68.98994,-35.510757,-45.572933,89.98620953312313
61655.74236641221,-78.40124,78.36774,-78.36774,135.7562513439171
61673.82824427481,-75.34789,24.218622,-50.58608,93.92974858263693
61691.9141221374,-47.035,-11.263418,-10.703478,49.53504064134002
61710.0,-33.405,-10.387614,-7.415622,35.7601454032262
61728.74236641221,-25.068106,-14.27609,-10.016713,30.53770167251794
61746.82824427481,-14.658955,-24.299982,2.4072654,28.481029012280896
61764.9141221374,-12.402443,-23.10592,15.144715,30.283106244998613
61783.0,-11.452458,-23.184887,48.518604,54.97956632743977
61800.74236641221,-3.615684,-28.580894,75.740326,81.03417584706695
61818.82824427481,-6.247883,-33.766327,51.14123,61.60053804120154
61836.9141221374,-26.92261,-43.19917,21.349525,55.19780281520837
61855.0,-52.517155,-45.498753,1.0313433,69.49281806670017
61872.74236641221,-74.0964,-36.901035,-35.82662,90.19705969517868
61890.82824427481,-78.40124,75.03681,-78.36774,133.86104721397223
61908.9141221374,-78.40124,25.728548,-51.04312,97.02635062219079
61927.0,-42.498047,-18.561789,-12.017184,47.906541526023204
61945.74236641221,-29.253302,-15.422293,-11.730036,35.08841039207033
61963.82824427481,-24.556023,-18.260283,-6.3723145,31.257680542604696
61981.9141221374,-18.164566,-22.919273,5.21654,29.706174819193485
62000.0,-17.391657,-24.024797,20.8518,36.25545706975514
62018.74236641221,-13.012634,-22.531622,50.827763,57.10047394858478
62036.82824427481,-9.861175,-26.101841,72.93823,78.09311283015172
62054.9141221374,-15.386399,-33.579678,50.617184,62.66127484228789
62073.0,-25.350468,-42.01468,14.266518,51.10198723303965
62090.74236641221,-42.897663,-45.910336,-7.839167,63.31998880091779
62108.82824427481,-55.020134,-34.539234,-57.03975,86.4506038772848
62126.9141221374,-78.40124,75.39814,-78.36774,134.06392736938898
62145.0,-78.40124,24.42202,-45.443718,93.85265579663435
62162.74236641221,-41.988358,-18.272245,-10.940375,47.08066429030939
62180.82824427481,-25.946302,-16.35792,-10.148323,32.30759344045813
62198.9141221374,-25.372004,-16.377064,-9.416093,31.632414065650458
62217.0,-18.980547,-22.653662,4.917426,29.960484723964814
62235.74236641221,-15.00832,-23.32846,23.457678,36.32807966774027
62253.82824427481,-7.8630958,-25.517971,60.779865,66.386648574356
62271.9141221374,0.035893623,-28.767542,71.97628,77.51230640170847
62290.0,-12.725485,-35.53947,48.360672,61.34938054013023
62307.74236641221,-30.007067,-49.18144,14.685277,59.45498693114664
62325.82824427481,-58.24338,-52.337685,-6.439316,78.56837388880771
62343.9141221374,-78.40124,-35.747654,-45.33843,97.36643382041994
62362.0,-78.40124,78.36774,-78.36774,135.7562513439171
62379.74236641221,-78.37731,16.846073,-36.216663,87.96840101543847
62397.82824427481,-39.313087,-21.832893,-2.8834543,45.061162156775396
62415.9141221374,-21.873573,-14.034406,-7.9205256,27.168961580071855
62434.0,-18.238745,-12.160759,-13.395499,25.689983886528754
62451.74236641221,-15.398363,-17.659662,-8.746079,25.009341113037223
62469.82824427481,-16.783857,-23.979332,3.9530842,29.535285569213016
62487.9141221374,-14.831244,-29.35859,27.255222,42.71697240728701
62506.0,-10.141145,-27.932417,62.950233,69.61174165417214
62524.74236641221,-12.019577,-26.154486,73.07702,78.54157002036263
62542.82824427481,-26.020483,-32.91445,39.86585,57.87670127588726
62560.9141221374,-42.81152,-44.067795,11.366313,62.481916360547025
62579.0,-60.913868,-51.380524,-9.626669,80.2691118505217
62596.74236641221,-75.48668,-30.835014,-56.905746,99.43490772168049
62614.82824427481,-78.40124,78.36774,-78.36774,135.7562513439171
62632.9141221374,-75.91979,21.182022,-45.82419,91.17208431756228
62651.0,-37.927593,-20.112392,-10.313434,44.15175583833183
62668.74236641221,-24.922138,-14.235411,-4.008121,28.979732965998945
62686.82824427481,-19.652954,-10.3924,-3.854975,22.563275713795214
62704.9141221374,-13.117922,-14.300018,0.06221561,19.405521461185618
62723.0,-12.814023,-18.980547,11.593639,25.668517976814694
62740.74236641221,-8.588147,-22.684769,32.94556,40.911672383203424
62758.82824427481,-7.8200235,-20.569437,53.093845,57.47356681920434
62776.9141221374,-13.464894,-24.522522,56.802853,63.31841410372917
62795.0,-23.285389,-31.471527,30.48565,49.61896017164759
62813.74236641221,-34.697166,-38.9709,6.3412066,52.5626795015764
62831.82824427481,-50.70333,-48.164455,-9.081086,70.52027028787766
62849.9141221374,-72.03132,-19.305983,-64.82388,98.80975386465188
62868.0,-78.40124,78.36774,-78.36774,135.7562513439171
62886.74236641221,-63.505386,12.479015,-34.630165,73.40237185749821
62904.82824427481,-30.653152,-16.310062,-11.1198435,36.45935777606951
62922.9141221374,-21.780249,-12.390478,-6.738429,25.948210284305276
62941.0,-17.31269,-12.912132,-4.608741,22.083769638053305
62958.74236641221,-14.98439,-14.534524,2.3019776,21.001986392948115
62976.82824427481,-16.353134,-16.195202,15.40315,27.694161647633603
62994.9141221374,-12.019577,-17.004005,41.722744,46.630395496805406
63013.0,-3.902833,-24.343054,67.02057,71.41129593137003
63030.74236641221,-7.968384,-28.157349,44.697132,53.42438633531209
63048.82824427481,-22.902523,-34.481804,17.365334,44.88958890201046
63066.9141221374,-44.316658,-33.37628,0.70112205,55.48363556091435
63085.0,-54.089294,-25.82905,-33.20878,68.52455485743293
63103.74236641221,-78.40124,47.803123,-78.36774,120.72032005755422
63121.82824427481,-75.52018,42.9192,-53.15606,101.83772400538024
63139.9141221374,-43.31642,-6.0564504,-18.200459,47.37351096208451
63158.0,-27.549551,-11.725249,-15.398363,33.66851359198043
63175.74236641221,-23.773542,-14.95089,-13.608468,31.207383939139913
63193.82824427481,-19.277267,-22.160723,1.0552725,29.390887481008026
63211.9141221374,-17.334227,-22.172686,19.906603,34.472833842632284
63230.0,-12.861881,-19.167194,39.540413,45.784861787520626
63247.74236641221,-8.289034,-20.1435,57.391506,61.386102970063114
63265.82824427481,-12.687199,-24.754635,55.292927,61.895595551510404
63283.9141221374,-23.67304,-31.13652,29.643345,49.07773021790051
63302.0,-35.680653,-40.55022,5.5898333,54.30170878413126
63320.74236641221,-51.349415,-43.433674,-17.130829,69.4025342491738
63338.82824427481,-66.50131,2.2062612,-78.36774,102.80464237040235
63356.9141221374,-78.40124,78.36774,-78.36774,135.7562513439171
63375.0,-53.75668,-2.3211207,-24.402876,59.081880496458005
63392.74236641221,-31.978825,-11.093522,-6.4225655,34.452297838415646
63410.82824427481,-23.749613,-7.492195,-11.196417,27.304520819924363
63428.9141221374,-18.442142,-12.22776,-7.083008,23.233590305715303
63447.0,-15.400757,-13.139459,-2.0698655,20.34976761965159
63464.74236641221,-15.910446,-17.19065,10.806373,25.79609343983203
63482.82824427481,-15.022677,-20.667547,44.094116,50.9619405935939
63500.9141221374,-10.473759,-25.939123,78.40124,83.24236999951894
63519.0,-9.84921,-30.007067,54.28312,62.801975482471796
63536.74236641221,-20.775229,-40.966587,20.74412,50.40029667576779
63554.82824427481,-40.794296,-44.084545,0.71787244,60.06777035010332
63572.9141221374,-55.108673,-43.352318,-26.467957,74.94626117124123
63591.0,-78.40124,26.266953,-76.83867,112.875544121881
63609.74236641221,-78.40124,61.191444,-55.020134,113.65897411872365
63627.82824427481,-53.3451,-7.2026534,-8.57379,54.50768555877815
63645.9141221374,-28.635931,-14.194731,2.1225095,32.03142174454191
63664.0,-15.328969,-7.083008,-6.3435993,18.03850173961201
63681.74236641221,-12.66327,-7.803273,-5.3816504,15.818079454638266
63699.82824427481,-9.483095,-13.426607,5.821945,17.438403306911418
63717.9141221374,-3.9961565,-19.502201,34.761776,40.0585344376335
63736.0,3.3261423,-25.757263,65.88633,70.82025346410389
63754.74236641221,3.3620358,-28.114277,43.122597,51.58753946427005
63772.82824427481,-13.311748,-29.102549,16.542173,36.0250535138372
63790.9141221374,-38.099884,-23.811829,0.54079723,44.93213574695368
63809.0,-46.814854,-12.010006,-36.19513,60.38177071665133
63826.74236641221,-77.98009,60.763115,-77.59962,125.67717217162283
63844.82824427481,-50.42336,21.493101,-41.930927,69.01210954147925
63862.9141221374,-34.81442,2.2182257,-20.322968,40.37310235195661
63881.0,-28.145386,-0.18425392,-20.710619,34.9446196425028
63899.74236641221,-20.739334,-11.0791645,-14.331126,27.536322071211547
63917.82824427481,-15.24761,-16.850859,-4.886318,23.24472334417222
63935.9141221374,-13.328498,-22.543587,9.384986,27.819779581850913
63954.0,-12.0147915,-23.675432,25.103998,36.5389109136972
63971.74236641221,-15.185394,-20.803944,43.498283,50.55196238365491
63989.82824427481,-21.916645,-17.14758,55.668613,62.236430659672266
64007.9141221374,-29.092978,-25.470114,48.051987,61.677560998548316
64026.0,-29.973566,-47.834232,19.076263,59.58550343692121
64043.74236641221,-37.07811,-65.7284,-7.7147355,75.85859181112617
64061.82824427481,-61.07898,-69.277084,-33.94819,98.3993687462453
64079.9141221374,-78.40124,9.588383,-78.36774,111.26632102662462
64098.0,-78.40124,78.36774,-78.36774,135.7562513439171
64115.74236641221,-48.370243,-16.570889,-20.167429,54.9636239944148
64133.82824427481,-26.214308,-23.156172,0.004785816,34.977110637050664
64151.9141221374,-15.637654,-12.830773,1.9454343,20.321163180705515
64170.0,-13.175352,-5.9750915,-2.6704855,14.71132596209419
64188.74236641221,-12.660876,-6.6355343,0.7657306,14.314832862650853
64206.82824427481,-12.919311,-12.617805,18.30814,25.715862614198773
64224.9141221374,-4.168446,-19.313162,47.992165,51.90011628002759
64243.0,2.5077677,-27.68116,64.21608,69.97314090670193
64260.74236641221,-5.723836,-30.720154,33.550964,45.849289478332246
64278.82824427481,-27.231295,-30.629223,8.810688,41.920412116224455
64296.9141221374,-52.02182,-23.177708,-8.961441,57.652262132913265
64315.0,-51.51931,-0.069394335,-65.426895,83.27618331666537
64332.74236641221,-78.40124,67.946625,-78.36774,130.01923302010292
64350.82824427481,-49.195797,7.729093,-44.065403,66.49605298527325
64368.9141221374,-37.7912,-11.282561,-20.356468,44.38306850132993
64387.0,-30.681868,-15.867373,-11.493137,36.40388369379457
64404.74236641221,-26.893894,-20.368433,-6.7216787,34.39964479329341
64422.82824427481,-25.570616,-24.642168,9.937747,36.87616658216644
64440.9141221374,-20.8183,-23.589289,24.7666,40.04048758413815
64459.0,-15.048999,-21.37824,46.324306,53.19250739325265
64477.74236641221,-13.285426,-24.230587,64.77841,70.42631818073514
64495.82824427481,-16.731213,-28.767542,45.910336,56.70329719518988
64513.9141221374,-23.570145,-41.13409,15.862588,49.99186727365631
64532.0,-36.762245,-52.395115,-5.8674107,64.27392349643613
64549.74236641221,-53.30442,-49.794025,-48.896683,87.81623839381595
64567.82824427481,-78.40124,65.508255,-78.36774,128.76175122834508
64585.9141221374,-78.27681,49.83231,-62.904766,112.10498512210309
64604.0,-45.64951,-8.525931,-21.909466,51.34777466514023
64621.74236641221,-31.296844,-18.434963,-5.7956233,36.782190726045776
64639.82824427481,-21.170057,-18.600075,0.9164838,28.195284108242934
64657.9141221374,-19.636204,-17.018362,8.98537,27.494399915793032
64676.0,-17.623768,-14.522559,12.172724,25.878120642861237
64694.74236641221,-16.463207,-17.891773,31.691675,39.943898033542034
64712.82824427481,-9.73435,-27.355726,61.155552,67.69855873897376
64730.9141221374,-3.072494,-30.703403,45.771545,55.201209287908455
64749.0,-13.275854,-32.63448,15.470151,38.4783465895108
64767.74236641221,-31.820892,-35.94148,-3.2423904,48.11311928956671
64785.82824427481,-43.86679,-27.494514,-42.517193,66.99220302094524
64803.9141221374,-78.40124,66.7741,-78.36774,129.4103455565095
64822.0,-70.389786,39.387268,-53.306812,96.68347872947562
64839.74236641221,-45.49397,-5.0657864,-19.442379,49.73298301319725
64857.82824427481,-37.10204,-11.462029,-12.936061,40.93019857213207
64875.9141221374,-30.306181,-16.726427,-9.636241,35.93181191647828
64894.0,-26.223879,-22.029112,4.2330546,34.50930825968214
64911.74236641221,-25.616081,-23.067635,19.18873,39.4525886261559
64929.82824427481,-14.792958,-22.995848,36.16163,45.335462012488286
64947.9141221374,-6.6833925,-21.61753,54.591805,59.09526640745417
64966.0,-1.8808258,-27.595016,50.681793,57.73791263481085
64984.74236641221,-10.574261,-29.083405,26.305239,40.61557633392966
65002.82824427481,-24.285624,-34.654095,4.0057282,42.50580774142136
65020.9141221374,-38.13099,-43.443245,-17.4778,60.388421302018855
65039.0,-63.67289,-0.2919348,-72.32086,96.35677940871182
65056.74236641221,-78.40124,77.16171,-78.03034,134.86814999909097
65074.82824427481,-48.939754,11.864038,-36.960857,62.4656695267121
65092.9141221374,-39.475803,-6.168917,-16.740786,43.32030096092932
65111.0,-38.42532,-8.207675,-2.967206,39.40400306383174
65128.74236641221,-26.046804,-14.378984,5.6831565,30.290088268114445
65146.82824427481,-16.977682,-17.875023,10.5359745,26.80979097285735
65164.9141221374,-11.208382,-19.078657,33.617966,40.2466224416252
65183.0,-3.1490672,-28.310495,63.766216,69.83932312339373
65200.74236641221,3.280677,-33.699326,43.9314,55.46508199212009
65218.82824427481,-2.3594074,-30.232,7.0231853,31.126608537348087
65236.9141221374,-23.835758,-25.97741,-8.123923,36.179653324107356
65255.0,-34.017582,-18.387106,-33.180065,50.952902425535925
65273.74236641221,-56.367344,29.322697,-72.32326,96.26916414925263
65291.82824427481,-49.557125,31.978825,-55.721256,81.13822931802115
65309.9141221374,-37.599766,6.6020336,-23.914724,45.047122826063614
65328.0,-37.795982,0.069394335,-8.19571,38.674419624891
65345.74236641221,-26.649817,-8.932726,-3.1682103,28.285047223393338
65363.82824427481,-18.377535,-11.818573,-0.09571633,21.84997990956474
65381.9141221374,-17.250475,-9.731957,3.0030997,20.03268535627748
65400.0,-16.274168,-11.325634,9.286877,21.894396863291508
65417.74236641221,-10.205753,-15.063356,18.631182,26.041947526958673
65435.82824427481,-3.5726118,-15.630476,31.08627,34.97758593117849
65453.9141221374,1.5458187,-18.0856,44.96992,48.49507384899697
65472.0,-2.9552414,-22.057827,40.00703,45.78038480741619
65489.74236641221,-16.322025,-33.36432,16.28374,40.55547481599278
65507.82824427481,-37.894093,-45.072815,-1.7827165,58.91263883443217
65525.9141221374,-59.997383,-38.341568,-39.693558,81.51895699925679
65544.0,-78.40124,51.086193,-78.36774,122.05759387059229
65562.74236641222,-73.01959,40.897194,-68.360596,108.06300054281739
65580.8282442748,-38.712467,-20.890087,-19.727135,48.21006836130688
65598.9141221374,-22.395227,-23.754398,-0.22971918,32.64767047777824
65617.0,-22.323439,-11.993256,-3.383572,25.56604540689547
65635.74236641222,-21.143736,-10.232075,1.3854938,23.530247000683175
65653.8282442748,-15.4845085,-12.694378,3.6420062,20.351448239727183
65671.9141221374,-9.906639,-17.496944,15.714228,25.519042051994056
65690.0,-6.439316,-15.989412,33.230316,37.43501019251171
65707.74236641222,-7.580733,-11.23949,51.77296,53.518529832563495
65725.8282442748,-7.1739383,-18.710148,54.81913,58.36670320371891
65743.9141221374,-15.486901,-29.511736,28.320066,43.73571541157013
65762.0,-33.99126,-43.88115,6.692964,55.90846848926731
65779.74236641222,-61.224945,-46.317127,-10.768086,77.52239560211326
65797.8282442748,-78.40124,-22.098507,-47.66912,94.37925326437505
65815.9141221374,-78.40124,67.362755,-78.36774,129.71506414998694
65834.0,-66.283554,12.845131,-45.498753,81.41648141398083
65852.74236641222,-30.088427,-30.751263,-4.1253734,43.22004536229602
65870.8282442748,-20.148287,-19.449556,2.8044882,28.144339603114588
65888.9141221374,-19.585953,-10.710656,4.192375,22.71351392913853
65907.0,-16.920254,-6.712107,4.692493,18.79805485572946
65924.74236641222,-11.995648,-6.2622404,4.034443,14.120480023269222
65942.8282442748,-7.3342633,-10.926019,12.615412,18.22958938845941
65960.9141221374,-4.874354,-9.215089,22.746984,25.02203975081754
65979.0,-6.3794928,-6.5709257,38.159706,39.24331987672053
65996.74236641222,-7.5376606,-9.172017,47.236004,48.7050541223095
66014.8282442748,-18.006634,-14.302412,34.984318,41.86526439606973
66032.9141221374,-29.703169,-24.697205,11.316062,40.25274453552739
66051.0,-45.960587,-29.595488,-2.6226273,54.727932916358334
66069.74236641222,-58.39653,-15.544331,-39.913708,72.42157847346138
66087.8282442748,-78.40124,66.479774,-78.36774,129.25872294486078
66105.9141221374,-63.72314,21.667782,-42.742123,79.73092515960325
66124.0,-29.114513,-19.60031,-1.4046371,35.12548967211653
66141.74236641222,-18.535465,-13.072457,3.697043,22.980877305423373
66159.8282442748,-16.343563,-7.1236873,4.8839254,18.485445615291926
66177.9141221374,-12.881024,-4.5225964,8.446965,16.05384300400044
66196.0,-8.9973345,-3.6946502,11.990863,15.439665271307511
66213.74236641222,-3.5893621,-6.556568,27.085327,28.09781206643089
66231.8282442748,-0.16032484,-10.918839,48.035236,49.260842935722664
66249.9141221374,1.3998512,-15.37922,31.32556,34.92521582616407
66268.0,-5.927233,-14.972425,9.040407,18.467121057234746
66285.74236641222,-20.689083,-10.56469,-0.8614469,23.246352852404797
66303.8282442748,-32.96231,0.33740005,-19.12412,38.109837117262
66321.9141221374,-48.930183,34.95321,-47.793552,76.81219506363747
66340.0,-53.024452,36.54928,-29.650524,70.89849047683089
66358.74236641222,-33.68736,5.649656,-13.790329,36.836530925375925
66376.8282442748,-23.053276,-1.3519931,-5.884161,23.830752618172692
66394.9141221374,-17.090149,-2.833203,-2.3641932,17.48398242873563
66413.0,-11.406993,-5.747765,3.3165705,13.196815209691476
66430.74236641222,-6.870039,-8.233996,12.983919,16.839782617008392
66448.8282442748,-1.8640754,-7.5352674,28.157349,29.207727309638265
66466.9141221374,5.3218274,-16.427315,51.327877,54.15468107478563
66485.0,2.4670882,-22.275581,42.97663,48.46935897276794
66503.74236641222,-7.8559175,-23.225567,13.86451,28.166771909084567
66521.8282442748,-21.926216,-21.14613,-2.2828343,30.5471618075528
66539.9141221374,-33.99126,-12.452694,-22.237295,42.484969497014596
66558.0,-46.123302,20.29186,-57.594906,76.52641221690483
66575.74236641222,-60.483147,42.493263,-47.300613,87.75668898486626
66593.8282442748,-41.55524,6.6283555,-18.65272,46.02930622429997
66611.9141221374,-30.85655,-1.9215052,-5.9679127,31.487058327683584
66630.0,-24.177944,-0.8614469,-3.907619,24.506826662744743
66648.74236641222,-16.594818,-6.070808,2.4311945,17.83685512983772
66666.8282442748,-10.4259,-7.5089455,8.77958,15.56164124725828
66684.9141221374,-3.979406,-12.306726,26.40574,29.403303928292004
66703.0,5.0274997,-27.405977,50.988087,58.104632728187845
66720.74236641222,5.912876,-25.570616,32.7972,42.00565239406278
66738.8282442748,-6.6786065,-20.567045,9.86596,23.768556782763802
66756.9141221374,-21.93579,-18.664682,-3.6252558,29.02915287604269
66775.0,-33.955364,-5.0705724,-27.580658,44.038280444961764
66792.74236641222,-55.060814,42.751698,-59.96149,91.94988419376014
66810.8282442748,-50.849297,30.49522,-36.980003,69.87939660674395
66828.9141221374,-37.460976,6.0732007,-19.74867,42.78105253945906
66847.0,-31.947716,-3.3955367,-8.774794,33.304402664514775
66864.74236641222,-26.13295,-6.0181637,-1.7587874,26.874573543423836
66882.8282442748,-19.88028,-11.229918,7.4563017,24.019430180721333
66900.9141221374,-13.395499,-12.684806,19.942495,27.16701683184339
66919.0,-9.853995,-16.956146,44.91249,49.00758984722102
66937.74236641222,-5.927233,-22.45505,53.510212,58.33270223317049
66955.8282442748,-10.308648,-24.74267,34.86467,43.9774164375956
66973.9141221374,-17.037506,-25.57301,7.5065527,31.632321833814434
66992.0,-26.819714,-24.352625,-9.351485,37.4138700903508
67009.74236641222,-30.169785,-18.178923,-41.607887,54.515185306398095
67027.8282442748,-56.951214,42.206112,-78.33903,105.64942161493947
67045.9141221374,-48.542534,28.458857,-46.934498,73.27435602855618
67064.0,-34.323875,3.6276486,-25.692654,43.02790604880074
67081.74236641222,-33.328423,-3.1083877,-17.42037,37.73480018096479
67099.8282442748,-27.848665,-12.349798,-8.339285,31.58495412746794
67117.9141221374,-23.326069,-18.154993,5.43908,30.054830844129036
67136.0,-19.818066,-14.831244,19.040369,31.229108060014344
67153.74236641222,-19.13848,-12.376121,40.55979,46.52468541066281
67171.8282442748,-14.874317,-16.700106,51.61024,56.2472729959891
67189.9141221374,-11.246668,-20.516794,32.30426,39.88723594445045
67208.0,-12.349798,-21.749142,8.528324,26.424893540484586
67226.74236641222,-18.59529,-24.53688,-7.4347653,31.672054328454667
67244.8282442748,-21.177237,-8.25314,-61.349377,65.42427489167838
67262.9141221374,-60.4305,56.764565,-78.36774,114.08577405880553
67281.0,-43.28053,25.214073,-57.465687,76.23161376169469
67298.74236641222,-25.78119,-4.924605,-27.700304,38.16055992663814
67316.8282442748,-21.524208,-11.342384,-5.704693,24.989692416173696
67334.9141221374,-17.406013,-11.55296,7.654913,22.24944642806508
67353.0,-20.014284,-7.6333766,19.392128,28.894543268902307
67370.74236641222,-18.205244,-8.049743,38.35832,43.21562199816155
67388.8282442748,-8.207675,-15.556295,54.60377,57.36667971257836
67406.9141221374,-5.1686816,-29.119299,49.983063,58.07715067559314
67425.0,-10.263183,-29.863493,12.309119,33.892116340067915
67443.74236641222,-20.887695,-26.039625,-9.516596,34.7120076051626
67461.8282442748,-33.28535,-17.1404,-32.78763,49.76682145565859
67479.9141221374,-62.433365,46.30995,-78.36774,110.38133541017396
67498.0,-66.65446,48.444424,-51.5911,97.21790397757697
67516.74236641222,-36.76464,0.011964541,-23.86208,43.8296447556473
67534.8282442748,-26.360275,-11.682178,-6.4417086,29.543747064084865
67552.9141221374,-21.371061,-11.043271,7.056686,25.069361777830682
67571.0,-18.767578,-7.5687685,14.455558,24.869085179878255
67588.74236641222,-16.67139,-6.1617384,19.461521,26.356271820490385
67606.8282442748,-10.167466,-10.311041,32.433475,35.51936418266045
67624.9141221374,-2.2565124,-22.043468,45.91512,50.9823947485088
67643.0,0.55754757,-21.703676,25.216465,33.27507352812333
67660.74236641222,-5.8171597,-18.56418,4.711636,20.01668403717759
67678.8282442748,-19.751064,-12.191867,-19.834816,30.531394921156828
67696.9141221374,-37.023075,22.210974,-62.6918,76.12028136918768
67715.0,-51.22977,54.622913,-69.99974,102.50909988350337
67733.74236641222,-29.595488,11.500317,-32.809162,45.657324847179524
67751.8282442748,-19.198301,-4.087087,-12.857095,23.46452499564385
67769.9141221374,-18.030563,-6.140202,-0.5527618,19.05541467156546
67788.0,-19.669704,-8.210068,15.793194,26.527861744473036
67805.74236641222,-15.915232,-15.819515,47.42026,52.4617262670287
67823.8282442748,-9.617098,-24.634989,61.660458,67.09234932346229
67841.9141221374,-2.8738825,-27.003967,29.662489,40.216124726731394
67860.0,-1.926291,-24.276052,6.4441013,25.190548610303164
67877.74236641222,-13.275854,-27.559122,-6.247883,31.22161986223471
67895.8282442748,-26.463171,-15.470151,-35.955837,47.248779938836634
67913.9141221374,-58.34628,36.891464,-66.84589,96.09183896561558
67932.0,-65.65422,51.6246,-59.712627,102.67021842876116
67949.74236641222,-39.84431,2.763809,-33.117847,51.88448197178025
67967.8282442748,-24.457914,-14.8910675,-13.084421,31.482304893800155
67985.9141221374,-23.35957,-13.70897,-4.225876,27.41283270683962
68004.0,-22.199009,-14.625454,9.47113,28.220599014994296
68022.74236641222,-19.279661,-13.701792,18.499573,30.027964191208735
68040.8282442748,-17.389263,-13.541467,37.353294,43.37080087853686
68058.9141221374,-12.804451,-18.633575,52.34008,57.01445480839421
68077.0,-14.752278,-20.806335,42.02425,49.158629663407105
68094.74236641222,-18.087992,-24.460306,17.662054,35.1771257453564
68112.8282442748,-22.756556,-24.802492,-6.7862873,34.33770734497779
68130.9141221374,-28.006596,-25.513186,-32.512444,49.9234523468775
68149.0,-41.169983,14.807315,-77.499115,88.99627466086848
68166.74236641222,-58.22663,49.169476,-72.93105,105.48419723055191
68184.8282442748,-37.63805,10.351721,-30.191322,49.34872703091768
68202.9141221374,-26.712032,-7.3318706,-9.356271,29.2374552088517
68221.0,-20.117178,-9.633848,2.6633067,22.463416493246367
68238.74236641222,-15.350506,-7.4132295,9.631455,19.579553914549006
68256.8282442748,-6.094737,-16.927431,12.285191,21.78553780069271
68274.9141221374,-1.8640754,-6.6259627,-5.4319015,8.768335800160639
68293.0,-7.1835103,0.63172776,-14.678099,16.353852464993125
68311.74236641222,-11.53621,2.9767776,-6.968148,13.802189413055661
68329.8282442748,-8.774794,-6.9705415,-0.9284483,11.244886606428325
68347.9141221374,-5.790838,-5.056215,8.368,11.363209884027885
68366.0,-7.0447216,3.876511,11.952576,14.405537580750105
68384.74236641222,-8.731722,2.6178415,16.171272,18.563569196207666
68402.8282442748,-7.185903,4.0966587,4.8456388,9.586450323751755
68420.9141221374,-4.8839254,1.7946811,3.5510757,6.299503646367137
68439.0,-4.034443,0.17707519,2.6968074,4.856012365702675
68456.74236641222,-6.042093,0.004785816,5.4821525,8.158486793391287
68474.8282442748,-5.7405863,-0.93084127,6.874825,9.004666307993201
68492.9141221374,-3.615684,-3.1442811,7.50416,8.903487616056598
68511.0,-0.2392908,-3.7018287,5.1423593,6.340714075039562
68528.74236641222,-1.8592896,1.5601761,2.2182257,3.2881047026850987
68546.8282442748,-8.135887,0.82076746,-1.4644598,8.30728349136948
68564.9141221374,-8.583362,-0.208183,-4.393379,9.644647345661426
68583.0,-5.388829,-6.645106,-1.7133222,8.725387366959122
68601.74236641222,7.4395514,1.6941789,-16.987255,18.622137353522884
68619.8282442748,15.556295,5.5324035,-32.696697,36.62894753229536
68637.9141221374,12.579518,-1.4213874,-36.319557,38.46264208201839
68656.0,3.9602628,-8.963834,-37.13793,38.40911149856919
68673.74236641222,-1.8927903,-5.056215,-22.696733,23.330016162002288
68691.8282442748,2.8906329,-6.932255,-8.834617,11.595791283231879
68709.9141221374,-9.193553,-11.040878,-26.063555,29.76123826410316
68728.0,-16.858038,-14.922174,-29.853922,37.39146133648435
68745.74236641222,-10.323006,-4.338342,-11.153344,15.80451665086079
68763.8282442748,-3.9459054,2.677664,-2.4168372,5.346134676001812
68781.9141221374,-2.5651975,8.44218,-2.2301903,9.100790632720893
68800.0,4.70685,0.208183,-1.9430413,5.096389562964618
68818.74236641222,4.0799084,-1.9837208,-6.09713,7.599723350336063
68836.8282442748,-0.39961565,-2.0650797,-11.966933,12.150379922519543
68854.9141221374,-4.0679436,-3.5606472,-14.6900625,15.653252373534231
68873.0,-7.2576904,-4.321592,-12.775736,15.31566706671349
68890.74236641222,-6.5422106,-3.6755068,-9.976034,12.483233721306135
68908.8282442748,-5.527618,-2.3522286,-8.7389,10.604523249565817
68926.9141221374,-4.23784,-0.7968384,-7.8822393,8.98465000341021
68945.0,-3.1969252,0.208183,-8.231604,8.833061491278096
68962.74236641222,-4.1277666,0.93084127,-8.205282,9.23209484751618
68980.8282442748,-3.7425082,0.7513731,-8.265104,9.104003146599128
68998.9141221374,-3.5534685,0.10050214,-8.770008,9.463100938947067
69017.0,-3.4051082,-0.2584341,-9.049978,9.672830601133985
69034.74236641222,-3.280677,-0.36372203,-9.186374,9.761383229917383
69052.8282442748,-3.3883579,-0.77530223,-9.497452,10.113538317455438
69070.9141221374,-3.6108983,-1.0720228,-9.777423,10.477872872753885
69089.0,-4.039229,-1.2634555,-9.557275,10.452425371201953
69107.74236641222,-3.9961565,-1.0265576,-9.136123,10.024561374431253
69125.8282442748,-4.010514,-0.8614469,-9.11698,9.997281511796874
69143.9141221374,-4.0559793,-0.7226582,-8.999727,9.897893161202779
69162.0,-3.618077,-0.49293905,-9.073908,9.781067246339118
69179.74236641222,-3.5223608,-0.14357449,-9.00212,9.667771394378097
69197.8282442748,-3.9530842,-0.36372203,-9.045193,9.877989917723442
69215.9141221374,-3.8597608,-0.45465255,-9.128944,9.921798270957446
69234.0,-3.986585,-0.72983694,-8.841795,9.72640019448298
69252.74236641222,-4.094266,-0.99305683,-8.91119,9.856900281653743
69270.8282442748,-4.326378,-1.4381378,-8.968619,10.060910182375839
69288.9141221374,-4.2019467,-1.1797037,-9.0069065,10.008617366508563
69307.0,-4.288091,-0.84230363,-9.073908,10.071395445610115
69324.74236641222,-3.936334,-0.6819788,-9.095444,9.934129151583518
69342.8282442748,-4.082301,-0.72505116,-9.038013,9.943669324117096
69360.9141221374,-4.271341,-0.73701566,-8.825045,9.832037696906538
69379.0,-4.405344,-1.0385221,-8.6455765,9.758666759751389
69397.74236641222,-4.1564813,-1.0337363,-7.654913,8.77169542179597
69415.8282442748,-3.799938,-0.14357449,-7.056686,8.016043895876491
69433.9141221374,-3.8214743,0.0598227,-8.2028885,9.049564869341953
69452.0,-4.1062303,-0.61497736,-8.731722,9.668624179025402
69469.74236641222,-4.4388447,-1.4907818,-9.200731,10.323721401718002
69487.8282442748,-5.130395,-2.7494514,-9.703242,11.31518188839892
69505.9141221374,-5.620941,-3.823867,-9.030835,11.303668314153375
69524.0,-5.5802617,-4.216304,-8.329713,10.876610626627759
69541.74236641222,-5.565904,-3.5989337,-8.980584,11.161653107639015
69559.8282442748,-4.8791394,-2.5915194,-8.805902,10.395474213272461
69577.9141221374,-3.804724,-1.74443,-8.966227,9.895058734368634
69596.0,-3.7640445,-1.1557746,-8.703007,9.55228646796328
69613.74236641222,-3.9937637,-1.2610626,-8.245961,9.248583685412456
69631.8282442748,-4.2904844,-1.5577831,-8.207675,9.391532009151327
69649.9141221374,-4.4220943,-1.8162172,-8.205282,9.496326427371393
69668.0,-4.505846,-1.8664683,-8.822652,10.080949380079481
69686.74236641222,-4.8264956,-2.3330853,-8.580969,10.117874073779356
69704.8282442748,-5.106466,-2.759023,-8.138281,9.995990224017127
69722.9141221374,-4.687707,-2.1057591,-8.133494,9.620942934718915
69741.0,-4.524989,-2.031579,-8.638398,9.961162516983949
69758.74236641222,-4.9030685,-2.3330853,-8.791544,10.333180228598762
69776.8282442748,-4.5991693,-2.1201165,-8.348856,9.764765677289482
69794.9141221374,-4.419701,-1.9406484,-8.559432,9.826685570651355
69813.0,-4.513025,-2.1392598,-8.51636,9.872801770121844
69830.74236641222,-4.5537043,-2.0028641,-8.525931,9.871128956288045
69848.8282442748,-4.536954,-2.1512244,-8.616862,9.973065162943405
69866.9141221374,-4.587205,-2.3857293,-8.851367,10.250895169378746
69885.0,-4.742744,-2.4910173,-8.549861,10.089544635797807
69903.74236641222,-4.5967765,-2.110545,-8.231604,9.661472910524216
69921.8282442748,-4.4890957,-1.8305746,-8.413465,9.71027171999572
69939.9141221374,-4.55849,-1.8880045,-8.34407,9.693703948286242
69958.0,-4.7020645,-2.0244002,-8.193317,9.661161948461961
69975.74236641222,-4.668564,-2.0339718,-8.5546465,9.955626943857101
69993.8282442748,-4.6781354,-2.1464386,-8.592933,10.016518707953983
70011.9141221374,-4.608741,-2.2206187,-8.60729,10.01284585719618
70030.0,-4.637456,-2.3594074,-8.549861,10.008642492887423
70047.74236641222,-4.587205,-2.2325833,-8.389536,9.818920113676446
70065.8282442748,-4.6494203,-2.1009734,-8.494823,9.909249020732531
70083.9141221374,-4.6422415,-1.9693633,-8.537896,9.915869405076146
70102.0,-4.5680614,-1.9932925,-8.289034,9.672046556850427
70119.74236641222,-4.661385,-2.2062612,-8.411072,9.866216640132855
70137.8282442748,-4.972463,-2.4934103,-8.430215,10.1000499086262
70155.9141221374,-4.8767467,-2.450338,-8.557039,10.149370972514793
70174.0,-4.635063,-2.0914016,-8.619255,10.007463535855456
70192.74236641222,-4.343128,-1.8377534,-8.502003,9.722353284858793
70210.8282442748,-4.4149156,-1.9573988,-8.387143,9.678174286497107
70228.9141221374,-4.4962745,-2.1033661,-8.379964,9.739837266159812
70247.0,-4.78103,-2.4479449,-8.513967,10.066693408037468
70265.74236641222,-4.8552103,-2.4646955,-8.5546465,10.140501353725496
70283.8282442748,-4.792995,-2.3641932,-8.487645,10.030071196306448
70301.9141221374,-4.788209,-2.2517266,-8.413465,9.938994487122606
70320.0,-4.6900997,-2.0650797,-8.377571,9.820656048520036
70337.74236641222,-4.613527,-2.0339718,-8.444572,9.835266591511806
70355.8282442748,-4.6542063,-2.079437,-8.38475,9.812732905894702
70373.9141221374,-4.6398487,-2.1727605,-8.48286,9.909994850092101
70392.0,-4.7834234,-2.2924058,-8.446965,9.974341155523316
70409.74236641222,-4.8097453,-2.2971919,-8.461323,10.000236366537878
70427.8282442748,-4.6470275,-2.1799393,-8.291427,9.75165430241299
70445.9141221374,-4.718815,-2.1536174,-8.427822,9.89613392055159
70464.0,-4.714029,-2.1201165,-8.578575,10.015433710880338
70482.74236641222,-4.656599,-2.108152,-8.530717,9.944915868723777
70500.8282442748,-4.6494203,-2.0339718,-8.461323,9.866515966620453
70518.9141221374,-4.6781354,-2.1895108,-8.533111,9.974612358501497
70537.0,-4.8073525,-2.2254045,-8.633613,10.129281153252954
70554.74236641222,-4.668564,-2.084223,-8.346463,9.787896604796865
70572.8282442748,-4.556097,-1.9813279,-8.186138,9.575830798200823
70590.9141221374,-4.7212076,-2.1440456,-8.492431,9.950282258656692
70609.0,-4.7834234,-2.4407663,-8.523539,10.074184663753401
70626.74236641222,-5.0322857,-2.7542372,-8.681471,10.405655224161972
70644.8282442748,-4.5943837,-2.6178415,-8.805902,10.271580488685855
70662.9141221374,-4.5106316,-2.4144442,-7.9635983,9.46542318703158
70681.0,-4.479524,-2.1895108,-8.726935,10.050845103975965
70698.74236641222,-5.1327877,-2.8188457,-8.621648,10.422294127953968
70716.8282442748,-4.869568,-3.2208543,-8.071279,9.96153299569366
70734.9141221374,-5.0394645,-3.381179,-7.549625,9.686351816727814
70753.0,-5.0418572,-3.1825678,-7.3893003,9.49477860459994
70771.74236641222,-5.7358007,-3.1155663,-7.70995,10.101954862417283
70789.8282442748,-4.9628916,-3.328535,-7.8774533,9.88755322480018
70807.9141221374,-5.128002,-3.7855806,-6.870039,9.371470581110596
70826.0,-5.4773664,-3.9411197,-7.0279713,9.743015332185449
70843.74236641222,-4.9317837,-4.0248713,-7.5328746,9.862366814536689
70861.8282442748,-5.1160374,-3.9937637,-7.367764,9.8187541739944
70879.9141221374,-5.2643976,-4.398165,-6.9418263,9.759441061735167
70898.0,-5.4701877,-4.395772,-7.360585,10.169757936718076
70915.74236641222,-5.573083,-4.6398487,-6.9466124,10.042055263720393
70933.8282442748,-5.434294,-4.8097453,-6.9466124,10.045925789350719
70951.9141221374,-4.97007,-4.716422,-6.944219,9.755429760238398
70970.0,-5.2189326,-4.766673,-6.4464946,9.5663849807595
70987.74236641222,-4.680528,-5.0322857,-7.24094,9.98310842417373
71005.8282442748,-4.773852,-5.022714,-7.659699,10.329003224624387
71023.9141221374,-4.718815,-5.1519313,-7.24094,10.061849889942938
71042.0,-5.056215,-4.7834234,-6.3603497,9.428706054182761
71060.74236641222,-4.556097,-5.061001,-6.5254602,9.431510049678897
71078.8282442748,-4.9652843,-5.1016803,-6.781502,9.832088254243784
71096.9141221374,-4.4962745,-5.262005,-6.769537,9.681519105685028
71115.0,-5.266791,-4.7786374,-7.0662575,10.025290913218727
71133.74236641222,-5.15911,-5.1686816,-7.343835,10.356814084529256
71151.8282442748,-3.9530842,-5.604191,-7.083008,9.8591497495897
71169.9141221374,-4.2785196,-5.3457565,-6.8413243,9.679181819898153
71188.0,-5.3768644,-5.2572193,-6.843717,10.167865455461575
71205.74236641222,-5.4319015,-4.9030685,-6.2167754,9.601767076712477
71223.8282442748,-6.008592,-4.3885937,-6.5039244,9.882508036275967
71241.9141221374,-4.7977805,-4.950927,-6.750394,9.64874059350469
71260.0,-4.395772,-5.384043,-6.688178,9.645851722969672
71278.74236641222,-5.977484,-4.6207056,-5.7118716,9.471362752371693
71296.8282442748,-5.9487696,-5.017928,-5.436687,9.493420179420964
71314.9141221374,-5.3385777,-4.790602,-6.0684147,9.395527465369753
71333.0,-5.809981,-4.6781354,-6.611605,9.967655226637765
71350.74236641222,-5.814767,-4.716422,-6.4225655,9.864354988957121
71368.8282442748,-5.8123736,-5.003571,-6.384279,9.978899136070018
71386.9141221374,-5.841089,-5.0394645,-6.458459,10.061123983301382
71405.0,-6.6498914,-5.417544,-5.3313994,10.099240475701642
71422.74236641222,-5.726229,-5.2452545,-6.5182815,10.138559416576573
71440.8282442748,-6.0684147,-5.080144,-5.826731,9.827731893894597
71458.9141221374,-5.8961253,-5.149538,-5.723836,9.697645782438132
71477.0,-6.0564504,-4.819317,-5.876982,9.718298473625573
71494.74236641222,-6.214382,-5.0873227,-5.771694,9.88998723586109
71512.8282442748,-6.0492716,-5.0825367,-6.221561,10.056524622061762
71530.9141221374,-9.176803,-3.936334,-3.6420062,10.628859196602589
71549.0,-6.6977496,-4.769066,-4.974856,9.610048513789728
71567.74236641222,-6.092344,-5.3960075,-3.9315479,9.038286410840644
71585.8282442748,-8.090423,-5.7118716,-4.9844275,11.087151978599906
71603.9141221374,-5.8698034,-6.0229497,-5.5898333,10.098353893836883
71622.0,-5.7740874,-6.0755935,-3.933941,9.258985553048564
71639.74236641222,-5.9487696,-6.1832747,-1.7109293,8.749172808851288
71657.8282442748,-6.276598,-7.0136137,-2.730308,9.800053130534328
71675.9141221374,-7.705164,-6.6714277,-6.166524,11.912326307896342
71694.0,-6.17131,-5.410365,-7.293584,10.97968506444429
71711.74236641222,-6.4417086,-6.2119894,-4.900676,10.202992073406817
71729.8282442748,-6.590069,-5.6831565,-5.1327877,10.103107779367917
71747.9141221374,-6.3388133,-4.2091255,-4.8456388,9.020948226604151
71766.0,-7.8008804,-4.3838077,-5.2955055,10.39778262256976
71783.74236641222,-8.1119585,-5.1950035,-4.9772487,10.842736586876313
71801.8282442748,-9.772636,-6.381886,-0.95237744,11.710674877807554
71819.9141221374,-6.707321,-5.831517,-4.893497,10.145987305695735
71838.0,-7.5065527,-6.0540576,-3.359643,10.212107909214632
71856.74236641222,-7.5831256,-6.539818,-2.4838386,10.317095886408604
71874.8282442748,-7.1212945,-6.3938503,-0.2392908,9.57347466187199
71892.9141221374,-7.10933,-6.30292,0.64129937,9.522638208882158
71911.0,-7.4850163,-6.5278535,0.45704544,9.942194469177956
71929.74236641222,-7.805666,-6.4943523,0.15793194,10.155293004032107
71947.8282442748,-7.6166263,-6.65707,1.1270597,10.178400696873542
71965.9141221374,-7.31512,-6.4991384,1.8736471,9.962948058285408
71984.0,-7.4945884,-6.513496,2.239762,10.178949810470359
72001.74236641222,-6.458459,-6.3794928,2.8308103,9.50910658235141
72019.8282442748,-4.3526998,-6.5158887,4.563276,9.067871246984252
72037.9141221374,-5.649656,-6.1234517,3.1993182,8.92473588323039
72056.0,-9.315591,-6.9131117,0.15553902,11.601531857591068
72073.74236641222,-9.392164,-7.6692705,0.63651353,12.142306373952984
72091.8282442748,-5.884161,-6.190453,3.1203523,9.092945479614693
72109.9141221374,-6.58289,-5.958341,2.234976,9.15594811829758
72128.0,-7.185903,-6.357957,2.8690968,10.014616097835615
72146.74236641222,-6.848503,-5.9009113,2.8451676,9.477221437930341
72164.8282442748,-7.1691527,-5.8458743,2.5053747,9.58373096214193
72182.9141221374,-7.1715455,-6.1114874,3.1658175,9.940007220431747
72201.0,-6.4967456,-6.0540576,3.0820656,9.399917296335138
72218.74236641222,-6.2861695,-6.1497736,3.3500714,9.410559000350892
72236.8282442748,-6.9370403,-6.5158887,3.541504,10.154879824824505
72254.9141221374,-7.0136137,-6.4297442,3.3141778,10.075522919445628
72273.0,-7.0638647,-6.4177794,3.0007067,10.004514862120768
72290.74236641222,-6.8389316,-6.5469966,3.4697168,10.083307224422569
72308.8282442748,-6.664249,-6.0779867,3.5056105,9.676954171488472
72326.9141221374,-6.2670264,-6.1808815,3.9698346,9.656008635388453
72345.0,-6.2813835,-6.4225655,4.398165,10.002448782327631
72362.74236641222,-6.1354165,-6.561354,4.2067323,9.919238810798515
72380.8282442748,-6.200025,-6.5422106,4.3550925,10.010377626190412
72398.9141221374,-6.164131,-6.3435993,4.6278844,9.982738957013995
72417.0,-6.125845,-6.3986363,4.711636,10.033346264342654
72435.74236641222,-6.276598,-6.4369226,4.8073525,10.19511123388318
72453.8282442748,-5.831517,-6.17131,4.900676,9.803483202125916
72471.9141221374,-5.958341,-6.147381,5.2380757,10.036411593312247
72490.0,-5.884161,-6.1928463,5.6305127,10.231195884851681
72507.74236641222,-5.5084743,-5.652049,5.5252247,9.634160835155887
72525.8282442748,-5.697514,-5.446259,5.393615,9.550627499986689
72543.9141221374,-5.620941,-5.491724,5.96552,9.866176518188645
72562.0,-5.75973,-5.7023,6.197632,10.203007270914002
72579.74236641222,-5.6113696,-5.6640134,6.200025,10.099941909922489
72597.8282442748,-5.223718,-5.417544,6.094737,9.684153645757021
72615.9141221374,-5.135181,-5.4079723,6.2598476,9.73662879417481
72634.0,-5.123216,-5.4558306,6.5422106,9.940520572550751
72652.74236641222,-5.29072,-5.3242207,6.3172774,9.810557472909439
72670.8282442748,-5.329006,-5.467795,6.4536734,9.997248994794946
72688.9141221374,-4.993999,-5.5826545,6.6714277,10.030653260615608
72707.0,-5.154324,-5.6352987,6.3914576,9.958633319276066
72724.74236641222,-5.2978983,-5.7453723,6.3723145,10.083819779709494
72742.8282442748,-5.4031863,-5.6065836,6.2550616,9.987692299830387
72760.9141221374,-5.072965,-5.747765,6.046879,9.764042299534092
72779.0,-5.2021823,-5.888947,6.015771,9.896054677278379
72796.74236641222,-4.8791394,-5.7812657,6.2167754,9.791697031295136
72814.8282442748,-5.3577213,-6.0277357,6.4728165,10.340992633214688
72832.9141221374,-4.714029,-5.9176617,6.6594634,10.07914888194571
72851.0,-4.3096275,-5.460616,6.5781045,9.574062622582563
72869.74236641222,-4.544132,-5.3457565,6.535032,9.588164132498997
72887.8282442748,-5.8123736,-5.709479,7.1715455,10.854165199405628
72905.9141221374,-5.5802617,-5.3577213,6.78868,10.2922628372657
72924.0,-5.963127,-5.601798,7.305548,10.96859407723875
72942.74236641222,-5.4582233,-5.671192,7.9803486,11.20895106917007
72960.8282442748,-3.412287,-5.6999073,8.200496,10.55370932160718
72978.9141221374,-3.7664373,-7.209832,9.574025,12.563028381074377
72997.0,-10.098072,-14.254554,10.715443,20.49351327962946
73014.74236641222,-11.706106,-12.471837,7.24094,18.574467634939232
73032.8282442748,-13.914761,-7.918133,5.960734,17.08355213975027
73050.9141221374,-17.767344,-5.996628,6.8413243,19.961006446632158
73069.0,-21.04802,-6.439316,5.001178,22.57201182562024
73086.74236641222,-19.906603,-4.8839254,-0.4139731,20.501144944609745
73104.8282442748,-17.695555,-3.072494,-0.911698,17.983439030988066
73122.9141221374,-15.565867,1.5290682,-4.2282686,16.202238128594647
73141.0,-12.852309,6.953791,-7.65252,16.495396880753187
73158.74236641222,-8.078458,3.6108983,-9.73435,13.155137403813267
73176.8282442748,12.378513,-4.44363,-56.647312,58.15403157557877
73194.9141221374,-8.413465,-2.029186,-12.122473,14.894909894475697
73213.0,-5.826731,3.1299238,-3.4505734,7.460139001986156
73231.74236641222,-3.95787,4.551311,0.6460852,6.066019521999582
73249.8282442748,-3.5893621,2.7925239,-2.4096584,5.14666529139774
73267.9141221374,-1.3232782,-1.6702498,-1.8832186,2.8438199458441877
73286.0,0.46422416,-6.893968,0.107680865,6.91041923651806
73303.74236641222,0.31107804,-8.411072,-2.4359803,8.762242963884438
73321.8282442748,-0.009571632,-9.155267,-3.278284,9.724512915415566
73339.9141221374,0.16271774,-11.777894,-4.6278844,12.655535474957592
73358.0,1.5266753,-14.678099,-5.34815,15.696497575826625
73375.74236641222,0.15075321,-13.067671,-4.264162,13.746629749026134
73393.8282442748,-0.2991135,-11.6223545,-4.663778,12.52674811125523
73411.9141221374,-0.8710185,-9.619491,-3.1059947,10.145958969109394
73430.0,-2.605877,-5.960734,-4.455595,7.885002952561908
73447.74236641222,-3.9004402,-4.1301594,-5.0586076,7.606652435464773
73465.8282442748,-5.1088586,-3.0629225,-5.003571,7.7793093001783395
73483.9141221374,-6.2167754,-2.7279153,-6.5278535,9.41821052936711
73502.0,-6.3771,-6.2287397,-3.9650488,9.756342278063922
73520.74236641222,-5.0418572,-7.5328746,-8.083243,12.145095354157004
73538.8282442748,-5.7932305,-8.423037,-9.073908,13.669121344181683
73556.9141221374,-5.135181,-7.8511314,-7.729093,12.155213974483376
73575.0,-3.8645465,-8.61447,-5.623334,10.989344762410463
73592.74236641222,-4.1421237,-7.5400534,-5.8937325,10.428119523792844
73610.8282442748,-3.8477962,-9.629062,-4.144517,11.16697773615885
73628.9141221374,-4.630277,-8.583362,-4.967677,10.944924992712467
73647.0,-3.6826856,-8.48286,-3.8454032,10.015398782805287
73664.74236641222,-4.0416217,-6.9226832,-5.5587254,9.754879636678163
73682.8282442748,-4.816924,-5.8363028,-7.1715455,10.425749472034807
73700.9141221374,-4.608741,-7.628591,-4.9341764,10.187344648959265
73719.0,-5.1088586,-7.0160065,-3.8095098,9.47824605711058
73736.74236641222,-5.1136446,-6.3364205,-3.0820656,8.706245701255666
73754.8282442748,-6.3723145,-4.630277,-1.770752,8.073501088694004
73772.9141221374,-8.135887,-2.4264088,-2.9839563,8.999117297924066
73791.0,-7.518517,-4.6518135,-3.5199678,9.516177805774127
73809.74236641222,-6.544604,-5.704693,-7.3557997,11.379066436557311
73827.8282442748,-7.908561,-2.1536174,-4.4340587,9.319027929529424
73845.9141221374,-8.79633,-0.35893622,-5.309863,10.280997118844887
73864.0,-5.156717,-2.371372,-14.900639,15.945036155142265
73882.74236641222,-4.929391,-3.330928,-3.4290373,6.866751326271856
73900.8282442748,-8.98537,-5.2572193,-5.752551,11.893993097895823
73918.9141221374,-7.8319883,-6.369921,-5.83391,11.659778735708406
73937.0,-8.545074,-7.209832,-5.1016803,12.28930872820388
73954.74236641222,-13.555824,-9.131337,-4.0990515,16.850635089699058
73972.8282442748,-11.892754,-4.8647823,-2.5149465,13.093076812910384
73990.9141221374,-5.549154,-3.5702188,-5.6113696,8.661815120596467
74009.0,-1.7061435,-5.8721967,-10.045428,11.760282455335293
74027.74236641222,-2.237369,-2.0937946,-17.563946,17.82924549609619
74045.8282442748,-8.937511,-14.61349,-8.317748,19.042534617185943
74063.9141221374,-8.726935,-13.122708,-10.569475,18.97573876093139
74082.0,-7.7673798,-11.103093,-14.654169,19.958845963748956
74099.74236641222,-7.8272023,-12.191867,-11.246668,18.341053892648542
74117.8282442748,-2.2780485,-12.392871,-10.990627,16.720246363140774
74135.9141221374,-0.9667349,-7.8798466,-6.257455,10.10852619739567
74154.0,-1.665464,-5.391222,1.926291,5.962352053113016
74171.74236641222,0.75855184,1.0648441,1.9478272,2.3459165910858886
74189.8282442748,3.5080032,-2.2254045,9.4998455,10.368489579668811
74207.9141221374,7.2194037,-2.9935281,14.398128,16.382523925618035
74226.0,12.857095,-8.810688,23.869259,28.507448852562202
74243.74236641222,15.912839,-17.834345,30.516756,38.76280051005709
74261.8282442748,25.405506,-19.076263,26.805357,41.56766422423389
74279.9141221374,33.40739,-9.05955,6.84611,35.28453450092122
74298.0,41.705994,-2.5364826,-10.248825,43.02164680005594
74316.74236641222,43.39539,-12.091365,-25.075283,51.55706351553989
74334.8282442748,24.498592,-47.401115,-59.150295,79.66055555802203
74352.9141221374,-1.0074143,-78.40124,-61.873425,99.88037864535792
74371.0,20.01907,-33.725647,-36.08027,53.29135307445673
74388.74236641222,23.981726,-12.641733,-18.257889,32.684661630781584
74406.8282442748,21.909466,-12.620197,-7.348621,26.33052037703786
74424.9141221374,21.971682,-11.789858,0.20100428,24.935836947852106
74443.0,20.894873,-6.874825,5.2500405,22.614638217720714
74460.74236641222,21.191593,-2.6441634,16.836502,27.194540142454194
74478.8282442748,17.72427,1.797074,27.350939,32.64127886857525
74496.9141221374,14.340698,4.630277,36.11616,39.134027359441724
74515.0,15.235646,3.8477962,36.652172,39.87871809564137
74532.74236641222,23.752007,-0.25364825,27.264795,36.160630806925944
74550.8282442748,30.447363,-3.1634245,9.7176,32.11667663350256
74568.9141221374,37.585407,-6.1282377,-8.317748,38.97952088539383
74587.0,38.635895,-15.5347595,-21.009733,46.64193409267195
74605.74236641222,18.375141,-44.44109,-57.64994,75.074442183486
74623.8282442748,4.268948,-53.761467,-56.431953,78.0582127031679
74641.9141221374,15.185394,-34.106117,-33.562927,50.2025246034525
74660.0,23.144207,-19.1648,-20.25118,36.23608930460418
74677.74236641222,23.59886,-16.293312,-13.077243,31.51812960361057
74695.8282442748,24.42202,-11.380671,-3.8573678,27.218266286358467
74713.9141221374,24.886244,-6.4464946,4.974856,26.18456845693855
74732.0,24.599094,-2.7685947,12.35937,27.668295376307594
74750.74236641222,21.662996,-2.1990826,19.60031,29.296646771836173
74768.8282442748,21.06477,-3.228033,32.26358,38.66630738276399
74786.9141221374,18.540253,-0.25604117,34.563164,39.2226827750938
74805.0,22.036291,-0.57908374,26.518208,34.48403709755976
74822.74236641222,26.752712,5.927233,2.1296883,27.484091082777137
74840.8282442748,34.699562,6.8413243,-11.409386,37.1623116889492
74858.9141221374,44.421947,-3.9195836,-28.65029,53.00482645903388
74877.0,35.31693,-33.23749,-51.39488,70.6643472788039
74895.74236641222,1.8808258,-77.06121,-69.96146,104.09886395963045
74913.8282442748,18.159779,-42.20133,-39.770134,60.765067147792216
74931.9141221374,29.602667,-14.103801,-22.840307,39.96141539053314
74950.0,30.801514,-6.7599654,-15.707048,35.229841807418
74967.74236641222,31.129341,-3.9147975,-2.4623024,31.471009574993506
74985.8282442748,28.760363,-0.43311638,7.085401,29.6234531582865
75003.9141221374,25.587366,1.3424214,13.438572,28.932863865029294
75022.0,20.356468,-1.8808258,20.53833,28.978376322938963
75039.74236641222,19.416056,-3.5917552,28.516285,34.68519058925708
75057.8282442748,17.999454,-4.7594943,32.77566,37.69452239683438
75075.9141221374,19.91378,-2.2589052,21.239452,29.202321959927964
75094.0,24.096584,3.3979294,0.9763065,24.35455725441098
75111.74236641222,27.91088,11.742,-15.211717,33.88640022874205
75129.8282442748,32.359295,8.190925,-28.94701,44.183080621350406
75147.9141221374,29.042725,-19.571596,-59.54752,69.08280816211253
75166.0,16.960932,-76.45102,-77.82216,110.4025373821391
75184.74236641222,28.525858,-23.807043,-41.763424,55.898868103422174
75202.8282442748,21.04802,8.602505,-15.372042,27.446710430308205
75220.9141221374,21.217916,1.8927903,-13.950654,25.463765658883723
75239.0,23.929081,-3.1036017,-3.4051082,24.368586804952624
75256.74236641222,26.1162,-2.424016,9.186374,27.790667917056833
75274.8282442748,23.101135,-3.1299238,13.957833,27.17130772226321
75292.9141221374,22.624947,-5.3577213,26.84125,35.51121098813419
75311.0,20.674726,-5.2189326,35.273857,41.21803658976089
75328.74236641222,20.186573,-3.9124048,24.687634,32.12917542236881
75346.8282442748,22.818771,1.691786,4.8049593,23.380463718559852
75364.9141221374,29.626595,1.6223917,-7.181117,30.527622368765353
75383.0,38.31764,-3.0270288,-23.589289,45.098325845325455
75401.74236641222,24.613453,-24.436377,-63.017235,71.93142912882075
75419.8282442748,8.786758,-64.74491,-78.36774,102.03241230004446
75437.9141221374,23.330854,-15.965483,-40.569363,49.447938379859416
75456.0,21.167665,0.6676214,-16.803001,27.034359664914646
75473.74236641222,20.516794,-1.4022441,-11.194024,23.41391248525109
75491.8282442748,23.285389,-3.9004402,1.1988469,23.640220145437237
75509.9141221374,26.884323,-3.7329366,17.233725,32.151250616477945
75528.0,21.564888,-5.946377,30.14107,37.535155449572514
75545.74236641222,27.114042,1.0457008,55.149353,61.463126344658825
75563.8282442748,24.77617,10.169859,39.978317,48.120166896024685
75581.9141221374,33.495926,6.475209,15.52758,37.4834781049939
75600.0,25.843407,11.127023,-11.308884,30.324629981842055
75618.74236641222,57.72173,-10.454616,-10.801587,59.647056856302015
75636.8282442748,36.68807,-47.13311,-71.294304,93.00764657511455
75654.9141221374,10.930804,-78.40124,-59.470943,99.01025184764083
75673.0,25.584972,-46.436775,-31.873535,61.86183878642498
75691.74236641222,33.108276,-16.7025,-19.997534,42.13113827115678
75709.8282442748,32.127186,-5.2021823,-3.7664373,32.76285748978347
75727.9141221374,28.052061,0.35893622,4.7953877,28.46124917762852
75746.0,25.620867,1.0696299,14.627847,29.521972187001193
75763.74236641222,20.861372,1.9215052,21.222702,29.821001058596526
75781.8282442748,15.515616,1.6343563,28.516285,32.505137602785666
75799.9141221374,13.103564,6.793466,39.226944,41.911904101035404
75818.0,14.283268,9.093051,34.809635,38.70924967086872
75835.74236641222,23.962582,6.1497736,19.545273,31.528443477002003
75853.8282442748,34.043903,5.5443683,-0.5264398,34.496441703202926
75871.9141221374,44.938812,0.90691215,-20.8518,49.54913598499132
75890.0,38.92783,-31.165236,-57.70498,76.26606453885631
75907.74236641222,17.496944,-70.12417,-70.3515,100.86067528912365
75925.8282442748,21.60796,-46.324306,-41.746674,65.99719730265454
75943.9141221374,27.7697,-13.759221,-24.06069,39.23505070587957
75962.0,29.025974,-6.7910733,-15.092072,33.412519816198134
75980.74236641222,28.884794,-2.6968074,-3.304606,29.198022456844
75998.8282442748,24.271267,0.5240469,7.7889156,25.495808148843057
76016.9141221374,23.744827,0.44747382,16.030092,28.652764118108717
76035.0,18.53068,0.61497736,25.218859,31.301040680424567
76052.74236641222,18.387106,5.2021823,39.583485,43.95452937392112
76070.8282442748,18.123886,8.066493,32.399975,37.99081379834696
76088.9141221374,21.414135,9.028442,13.84058,27.048837266729027
76107.0,25.09682,4.917426,-0.06221561,25.574114322103195
76124.74236641222,33.369102,-0.37807947,-15.290683,36.70755915310262
76142.8282442748,31.461956,-25.027426,-42.344902,58.389360785343555
76160.9141221374,10.780051,-60.203175,-55.182854,82.37584084686809
76179.0,11.473994,-55.118244,-37.393974,67.58685265248153
76196.74236641222,21.019304,-27.391619,-27.477764,44.126403054466984
76214.8282442748,25.407898,-15.111215,-19.935318,35.6556728069427
76232.9141221374,27.750555,-5.4797597,-9.15048,29.72965444481602
76251.0,30.06689,2.9313123,1.5218896,30.24775386746625
76269.74236641222,28.420568,5.7501583,8.798723,30.30198891736996
76287.8282442748,22.476585,2.2110472,18.769972,29.366604363862653
76305.9141221374,24.639774,4.936569,34.869457,42.9810098501383
76324.0,24.395699,10.11243,39.509304,47.522589078962405
76341.74236641222,25.393541,10.488116,20.29186,34.15541075741495
76359.8282442748,29.363375,11.919075,1.770752,31.739686559444063
76377.9141221374,34.826385,9.389771,-18.458893,40.51883046666222
76396.0,38.85604,-6.4488873,-39.85149,56.0314308857966
76413.74236641222,21.363884,-52.318542,-67.12347,87.74511725111614
76431.8282442748,14.168408,-76.4893,-53.90504,94.64201042426171
76449.9141221374,26.855608,-42.07929,-35.89362,61.48367494431481
76468.0,34.137226,-14.577596,-28.777113,46.96784790395512
76486.74236641222,39.736633,-1.6008555,-14.189945,42.22460514453147
76504.8282442748,40.093174,4.4460235,2.861918,40.44033012965587
76522.9141221374,35.20925,5.616155,13.960226,38.28995158677536
76541.0,31.997967,10.669977,34.043903,47.92395677306943
76559.74236641222,30.430613,19.554846,43.653824,56.69277343244429
76577.8282442748,22.510086,20.449793,25.03939,39.39376926675518
76595.9141221374,22.048256,18.377535,8.1119585,29.82722340452566
76614.0,24.285624,16.640284,-12.419193,31.95194734975133
76631.74236641222,40.346825,2.68245,-26.441635,48.31378568334664
76649.8282442748,38.623928,-36.07548,-50.59804,73.16699886712031
76667.9141221374,11.227525,-78.40124,-50.13621,93.73607258855752
76686.0,21.500278,-49.695915,-26.582815,60.320742494507925
76703.74236641222,25.163822,-18.193281,-17.73145,35.75776461546702
76721.8282442748,27.190615,-3.4721096,-6.7336435,28.226353713112317
76739.9141221374,22.005182,-2.445552,5.173467,22.7370517050456
76758.0,18.432571,-1.0265576,3.0677083,18.714281401914626
76776.74236641222,18.279425,3.6778998,4.8958898,19.27781269239872
76794.8282442748,16.984861,7.0519004,10.58144,21.217485122286316
76812.9141221374,15.168644,7.650127,17.94681,24.71234899986169
76831.0,16.738392,11.38785,27.659624,34.2769849051742
76848.74236641222,18.494787,15.37922,29.925709,38.39434350443369
76866.8282442748,24.843172,12.182295,16.972897,32.460294808599905
76884.9141221374,35.50597,9.15048,-5.9679127,37.14863620465927
76903.0,50.121853,-8.406286,-30.811085,59.43221980832139
76920.74236641222,31.842428,-66.92007,-61.52645,96.32102594627293
76938.8282442748,1.6271775,-78.40124,-48.042416,91.96453596507277
76956.9141221374,31.507421,-35.281036,-26.50385,54.221058124376704
76975.0,33.534214,-0.98827106,-11.517067,35.47059374423155
76992.74236641222,24.23298,-2.1177237,2.6752713,24.472007475451324
77010.8282442748,19.351448,-0.42115182,8.286641,21.05526840520145
77028.9141221374,13.957833,0.12921704,9.131337,16.679901513704582
77047.0,12.60584,3.4529665,10.102858,16.519622257300142
77065.74236641222,12.6082325,14.008084,23.249495,29.928798203070855
77083.8282442748,12.069828,22.120043,34.678024,42.86656504568577
77101.9141221374,12.541231,19.696026,27.53998,36.106320964457694
77120.0,22.306688,14.032013,15.345719,30.495521146366297
77137.74236641222,32.81395,6.4943523,-2.0626867,33.51397623113933
77155.8282442748,49.408768,-6.7288575,-9.061943,50.68158136313802
77173.9141221374,53.32835,-22.072184,-31.65578,65.82691415872961
77192.0,33.38825,-77.37947,-45.302536,95.68007830042102
77209.74236641222,17.396442,-78.40124,-29.437555,85.53338688591134
77227.8282442748,33.38825,-24.146835,-22.601017,46.99628547038599
77245.9141221374,33.3356,2.1823323,-8.099994,34.374913882476264
77264.0,20.430649,0.16750357,0.8279462,20.44810433554314
77281.74236641222,18.202852,-0.5599405,4.020086,18.649891306515443
77299.8282442748,17.937239,2.160796,11.698928,21.523905283333715
77317.9141221374,17.406013,8.810688,17.721878,26.356450281409238
77336.0,22.653662,19.289232,42.823483,52.14512028379412
77354.74236641222,20.445007,20.89248,39.198227,48.89780191096506
77372.8282442748,23.80465,14.845602,15.15668,31.886959858025097
77390.9141221374,32.79002,8.688649,-2.7446656,34.03250243960065
77409.0,49.975887,-12.031542,-19.61706,55.01978123709811
77426.74236641222,34.094154,-45.833763,-45.08957,72.77509526273933
77444.8282442748,12.871452,-78.40124,-49.128796,93.4134214475389
77462.9141221374,22.368904,-51.102943,-23.213602,60.42143632219338
77481.0,27.085327,-17.750591,-15.489294,35.897306976494015
77499.74236641222,27.377262,-0.2057901,1.536247,27.42110280471796
77517.8282442748,17.633339,1.6941789,2.60827,17.905528722353502
77535.9141221374,17.858273,4.8647823,11.557746,21.821217059766358
77554.0,18.178923,8.037778,21.98604,29.638911442541424
77571.74236641222,21.828108,17.925274,41.270485,50.01034571936056
77589.8282442748,20.607725,17.355762,31.921394,41.77171530090074
77607.9141221374,20.263145,10.138752,11.887967,25.587362052419905
77626.0,28.324854,3.153853,-2.134474,28.57971522117743
77644.74236641222,38.626324,-14.060728,-21.126986,46.21738325659681
77662.8282442748,20.734549,-49.425518,-46.838783,71.18057982850951
77680.9141221374,8.308177,-75.76904,-38.523426,85.40507934755641
77699.0,19.782171,-35.477257,-21.562494,45.9881637078208
77716.74236641222,21.68214,-11.5218525,-11.253847,27.009578899175107
77734.8282442748,20.454578,-2.605877,1.5553902,20.67848144258831
77752.9141221374,16.36749,-3.1394954,5.2189326,17.46391759457379
77771.0,18.846544,1.5553902,11.584068,22.17661134724636
77788.74236641222,31.56485,19.7391,38.482746,53.543380207389
77806.8282442748,31.799356,25.718977,52.378365,66.45417925168056
77824.9141221374,21.998005,20.334932,17.721878,34.806416696803666
77843.0,24.197086,9.763065,-1.6965718,26.147557533318025
77861.74236641222,46.460705,-10.67237,-5.733408,48.01425369417282
77879.8282442748,34.869457,-53.40971,-27.288723,69.37687335654208
77897.9141221374,17.516087,-78.40124,-26.936966,84.72997034470345
77916.0,24.99871,-43.567677,-3.7688303,50.371440942965165
77933.74236641222,23.687397,-5.3194346,4.6159196,24.712261629663736
77951.8282442748,14.582382,1.4381378,10.622119,18.098163364713944
77969.9141221374,7.755415,-0.57429796,7.7243075,10.960894412576074
77988.0,1.5769265,0.07418015,4.891104,5.139562064988833
78005.74236641222,-2.574769,2.3618002,2.0363648,4.044047129641305
78023.8282442748,-10.019106,3.905226,5.6448703,12.144868704688994
78041.9141221374,-12.435944,-2.0363648,2.1823323,12.789138322711125
78060.0,-6.9155045,-8.169388,-2.452731,10.980846604084096
78077.74236641222,-2.6752713,-10.291898,-3.050958,11.0629374801077
78095.8282442748,-2.474267,-10.306255,-2.7973096,10.962017620427645
78113.9141221374,-2.7685947,-10.720228,-4.113409,11.811373272661106
78132.0,-2.7183435,-11.222739,-3.567826,12.085886165788146
78150.74236641222,-3.3692145,-10.516831,-3.3787863,11.548659553846019
78168.8282442748,-2.9241338,-10.27754,-3.6013267,11.275989576619665
78186.9141221374,-3.0557437,-9.858782,-3.5175748,10.904424998926295
78205.0,-2.7255223,-8.904011,-3.4792883,9.940590061482025
78222.74236641222,-1.8832186,-10.002356,-3.5199678,10.769578039977185
78240.8282442748,-1.5649619,-10.12918,-5.029893,11.417058150517612
78258.9141221374,-2.60827,-9.684099,-5.2021823,11.298121371145482
78277.0,-3.541504,-8.868117,-4.4340587,10.528372441301205
78294.74236641222,-3.5869691,-8.0617075,-4.718815,10.0062325649635
78312.8282442748,-3.7185793,-8.0114565,-4.1349454,9.752386411682112
78330.9141221374,-3.0892444,-7.9540267,-3.7784019,9.332003676872821
78349.0,-2.0483294,-8.274676,-2.9719918,9.027660355548806
78366.74236641222,-1.952613,-8.382357,-2.6992004,9.020104722373137
78384.8282442748,-2.603484,-7.9564195,-3.2399976,8.976654423906604
78402.9141221374,-2.6226273,-8.0306,-3.6372204,9.19772159574758
78421.0,-1.87604,-8.57379,-4.2593765,9.755597839930276
78439.74236641222,-1.1031306,-9.384986,-4.376629,10.41392052708745
78457.8282442748,-2.029186,-8.616862,-4.2282686,9.810512825708244
78475.9141221374,-2.811667,-8.432608,-4.271341,9.861982708301307
78494.0,-3.304606,-8.250747,-4.7953877,10.099058870338181
78512.74236641222,-2.6896286,-8.478073,-4.5154176,9.975009769501819
78530.8282442748,-2.8499537,-8.473288,-4.2785196,9.910831226020946
78548.9141221374,-3.1969252,-8.214853,-3.7664373,9.58593712063851
78567.0,-3.615684,-7.968384,-3.75208,9.520841280355008
78584.74236641222,-4.3407354,-7.1284733,-3.7544727,9.151676385049425
78602.8282442748,-4.611134,-6.590069,-2.9049904,8.551639340781927
78620.9141221374,-3.7951522,-7.075829,-3.7592585,8.865808520841632
78639.0,0.69155043,-12.689591,-4.6542063,13.53386855364991
