timestamp,accel_x,accel_y,accel_z,magnitude
57881127.74018325,-0.2057901,2.6992004,9.810924,10.177537133235829
57881145.82678883,-0.19143265,2.6633067,10.162681,10.507613151687298
57881163.913394414,-0.105287954,2.495803,10.533582,10.825731749807515
57881182.0,-0.2368979,2.3761578,10.758514,11.020338923722866
57881199.74018325,-0.28714898,2.1775463,11.160523,11.37459608332919
57881217.82678883,-0.45225963,2.165582,11.12463,11.342472252932856
57881235.913394414,-0.30629224,2.031579,10.837481,11.030508718771143
57881254.0,-0.2057901,1.9550059,10.447436,10.630772154852572
57881272.74018325,-0.035893623,1.8592896,10.131573,10.300826065086683
57881290.82678883,0.019143265,1.7611804,9.944926,10.099686926405939
57881308.913394414,0.0,1.849718,9.904246,10.075492320876435
57881327.0,-0.1483603,1.7037506,9.858782,10.006016160747516
57881344.74018325,-0.071787246,1.7898953,9.853995,10.0154928013391
57881362.82678883,-0.3326142,1.6247846,9.672134,9.813293703767089
57881380.913394414,-0.37329367,1.6774286,9.911426,10.059298197470639
57881399.0,-0.59583414,1.7061435,10.241647,10.399869097137271
57881416.74018325,-0.911698,1.7228938,10.794409,10.968993661615611
57881434.82678883,-1.1844895,2.0411506,10.741764,10.997945489007781
57881452.913394414,-1.1868824,2.0244002,10.248825,10.514052495675243
57881471.0,-0.98827106,1.952613,9.530953,9.77897961466387
57881488.74018325,-0.7896597,1.9358627,8.889653,9.132198929910823
57881506.82678883,-0.6197632,1.9645776,8.473288,8.720107860654018
57881524.913394414,-0.2967206,1.7683591,8.430215,8.618797013924981
57881543.0,-0.24886245,1.6487137,8.580969,8.741465458522883
57881561.74018325,-0.021536173,1.6295704,8.638398,8.790784009501522
57881579.82678883,-0.021536173,1.5745336,8.767615,8.907900574911096
57881597.913394414,0.21057591,1.4118158,9.064336,9.17604234885051
57881616.0,0.19382556,1.1557746,9.775029,9.845027944325778
57881633.74018325,0.17228939,0.8638398,10.141145,10.17932830519753
57881651.82678883,0.2680057,0.69155043,10.26079,10.287559500511561
57881669.913394414,0.24646953,0.6867646,10.198574,10.224642022022463
57881688.0,0.21296883,0.59583414,10.016713,10.03667840320243
57881705.74018325,0.21536173,0.3517575,10.105251,10.113664607181507
57881723.82678883,0.057429794,0.30629224,10.12918,10.13397259666332
57881741.913394414,0.105287954,0.25125536,10.019106,10.02280897994281
57881760.0,0.06460852,0.13639577,9.935354,9.936500247685123
57881778.74018325,0.1172525,0.21296883,10.174645,10.177549054037165
57881796.82678883,0.0071787243,0.28954187,9.961677,9.965886547663217
57881814.913394414,-0.09810923,0.31107804,9.810924,9.816344772967046
57881833.0,-0.22493336,0.16271774,10.098072,10.10188745713075
57881851.74018325,-0.35893622,-0.004785816,10.203361,10.209673540832913
57881869.82678883,-0.51208234,-0.07896597,10.315826,10.32883004069841
57881887.913394414,-0.5599405,0.043072347,10.227289,10.242696367663026
57881906.0,-0.61497736,0.208183,9.913818,9.935055342167226
57881923.74018325,-0.598227,0.25604117,9.33952,9.362161420028174
57881941.82678883,-0.5168682,0.24886245,9.428058,9.445494317745116
57881959.913394414,-0.52165395,0.42115182,9.554882,9.578374691614643
57881978.0,-0.49293905,0.4402951,9.542917,9.565778251192524
57881995.74018325,-0.45225963,0.28236315,10.01432,10.028503018088276
57882013.82678883,-0.46901,0.2656128,9.978427,9.992973828343235
57882031.913394414,-0.61497736,0.045465253,10.265575,10.284079653676741
57882050.0,-0.5910483,0.12921704,10.248825,10.266666889355292
57882068.74018325,-0.5886554,0.067001425,10.064571,10.081993542198994
57882086.82678883,-0.30389932,0.3278284,9.669742,9.680069039170485
57882104.913394414,-0.06221561,0.6795859,9.02605,9.051811220971551
57882123.0,0.052643977,0.93323416,8.848974,8.89820421424353
57882140.74018325,0.071787246,1.1988469,8.798723,8.88031045229033
57882158.82678883,0.033500712,1.4237803,8.935119,9.047907171525004
57882176.913394414,-0.055036888,1.3256711,9.219875,9.314855229150957
57882195.0,-0.07418015,1.1677392,9.7917795,9.861443267113131
57882212.74018325,-0.24886245,1.1222739,9.609919,9.67842830278771
57882230.82678883,-0.2919348,0.96194905,9.999963,10.050364764704609
57882248.913394414,-0.27997026,1.0433079,9.978427,10.036726563726635
57882267.0,-0.16511066,1.170132,9.612311,9.684678269730526
57882284.74018325,-0.21536173,1.3256711,9.557275,9.651180755003443
57882302.82678883,-0.2057901,1.2754201,9.495059,9.582546186177398
57882320.913394414,-0.2680057,1.1988469,9.923389,9.999135472139233
57882339.0,-0.27039862,1.0839874,10.153109,10.214390165983366
57882357.74018325,-0.37090075,1.1773108,9.973641,10.049733473233418
57882375.82678883,-0.39961565,1.1150951,9.964069,10.034231449719003
57882393.913394414,-0.35415038,0.9763065,9.844424,9.899054538963425
57882412.0,-0.28475606,0.7872668,9.6912775,9.72737038516038
57882430.74018325,-0.16989647,0.60540575,9.858782,9.878813868890106
57882448.82678883,-0.3517575,0.7106937,9.846817,9.878695455651771
57882466.913394414,-0.34697166,0.69872916,9.916211,9.94685137962755
57882485.0,-0.37329367,0.6748001,9.920997,9.95092381706498
57882502.74018325,-0.2943277,0.63172776,9.844424,9.869062399717508
57882520.82678883,-0.37807947,0.5934412,10.081322,10.10584829745514
57882538.913394414,-0.4091873,0.57669085,10.1435375,10.168154188291073
57882557.0,-0.31347096,0.6006199,10.198574,10.22105278043878
57882574.74018325,-0.19621846,0.57429796,9.885103,9.903715522545767
57882592.82678883,-0.052643977,0.52165395,10.021499,10.035204852860055
57882610.913394414,-0.03828653,0.53840435,9.7917795,9.806645240809857
57882629.0,-0.043072347,0.48336744,9.851603,9.86354809278777
57882647.74018325,-0.07657306,0.3230426,10.18661,10.19201860511609
57882665.82678883,-0.22732627,0.30150643,10.356506,10.363387471690878
57882683.913394414,-0.34697166,0.3278284,10.457008,10.46789745387075
57882702.0,-0.5144752,0.28236315,10.267968,10.284725593272626
57882719.74018325,-0.47618872,0.14357449,10.119608,10.131822906313452
57882737.82678883,-0.43072346,-0.09093051,10.131573,10.14113221050649
57882755.913394414,-0.3565433,-0.05025107,9.80853,9.815136731381331
57882774.0,-0.28954187,0.1172525,9.284483,9.289736660451057
57882791.74018325,-0.11485959,0.28475606,8.923154,8.928435251870155
57882809.82678883,-0.10050214,0.47618872,8.813081,8.826508544705591
57882827.913394414,-0.07418015,0.5240469,9.140909,9.15621893547411
57882846.0,-0.014357449,0.33500713,9.650599,9.65642257631125
57882863.74018325,-0.15314612,0.25604117,10.057393,10.061817170434722
57882881.82678883,-0.39482984,0.16271774,10.442651,10.451379218709182
57882899.913394414,-0.6389065,0.22732627,10.68912,10.710609932360265
57882918.0,-0.7705164,0.24886245,10.574261,10.605216817105154
57882936.74018325,-0.8351249,0.42593765,10.370864,10.413149215620773
57882954.82678883,-0.67001426,0.34936458,9.999963,10.028471205509387
57882972.913394414,-0.6748001,0.07896597,10.038249,10.061214329561768
57882991.0,-0.5838696,0.1172525,9.566847,9.585364540797048
57883009.74018325,-0.15314612,0.045465253,9.325163,9.326531284452457
57883027.82678883,0.14357449,-0.19143265,9.071514,9.074669489621138
57883045.913394414,0.27757734,-0.37329367,8.975799,8.987845405443096
57883064.0,0.39482984,-0.8255533,9.45438,9.498564630411025
57883081.74018325,0.27039862,-0.677193,9.626669,9.65424579180103
57883099.82678883,0.3278284,-0.59583414,9.530953,9.555184711477068
57883117.913394414,0.40679437,-0.13400285,9.32277,9.332603007530741
57883136.0,0.4977249,0.3254355,8.784366,8.804471838940497
57883153.74018325,0.5168682,0.4977249,8.427822,8.458313453398098
57883171.82678883,0.57908374,0.31825677,9.085872,9.109868020447236
57883189.913394414,0.53840435,0.20100428,9.353878,9.371516184884985
57883208.0,0.36611494,0.25364825,9.770244,9.78039086149195
57883226.74018325,0.24646953,0.19382556,10.066964,10.071845896072068
57883244.82678883,0.110073775,0.1459674,10.339756,10.341372097422155
57883262.913394414,0.019143265,0.2392908,10.24404,10.246852300738968
57883281.0,0.016750356,0.019143265,10.117215,10.117246977080573
57883298.74018325,0.12682413,0.24168372,10.1842165,10.187873237302059
57883316.82678883,0.08375178,0.4402951,10.052607,10.062593186260994
57883334.913394414,0.25125536,0.7130866,10.004748,10.033274854130743
57883353.0,0.5934412,1.1749178,10.138752,10.223839612010659
57883370.74018325,0.8925547,1.7731448,10.095679,10.28899561887846
57883388.82678883,0.8518753,1.8975761,10.12918,10.340540317335517
57883406.913394414,0.75615895,1.8281817,10.411543,10.597841871189106
57883425.0,0.53840435,1.8449322,10.815945,10.985368464904614
57883443.74018325,0.1196454,2.112938,10.86141,11.06566984875679
57883461.82678883,-0.25604117,2.3354783,11.184452,11.42855994912788
57883479.913394414,-0.6556568,2.371372,11.337599,11.601484477711086
57883498.0,-0.9093051,2.1033661,11.911897,12.130303988529068
57883515.74018325,-1.1150951,2.1942968,12.278011,12.522297299004492
57883533.82678883,-1.2849916,2.445552,12.445515,12.748441928800537
57883551.913394414,-1.5601761,2.7757733,12.35937,12.762957873193193
57883570.0,-1.5003533,2.8595252,12.002827,12.429633960265482
57883587.74018325,-1.2706342,2.885847,11.122237,11.560570057821009
57883605.82678883,-1.0098072,2.6441634,10.189003,10.574832991640124
57883623.913394414,-0.6652284,2.3594074,9.085872,9.410759911065913
57883642.0,-0.19861138,2.031579,8.31057,8.55758923052553
57883660.74018325,0.25364825,1.6870002,7.9300976,8.111519897963259
57883678.82678883,0.4402951,1.4142087,7.6716633,7.813338838857981
57883696.913394414,0.6748001,0.9858781,8.073672,8.161586265341048
57883715.0,0.5001178,0.83991075,8.502003,8.558015125825111
57883733.74018325,0.54079723,0.5910483,8.693435,8.730269860441517
57883751.82678883,0.50968945,0.49293905,8.487645,8.517211391557757
57883769.913394414,0.4785816,0.54797596,8.284247,8.316132896822026
57883788.0,0.16989647,0.8710185,8.17896,8.226963274468941
57883805.74018325,-0.071787246,1.2203832,8.080851,8.172798874787725
57883823.82678883,-0.3326142,1.715715,7.9444547,8.13441274141033
57883841.913394414,-0.52165395,1.9885067,7.9372764,8.19918522717303
57883860.0,-0.5695121,2.0937946,7.872668,8.1662244211912
57883877.74018325,-0.3565433,2.184725,7.8128448,8.120387325693702
57883895.82678883,-0.0598227,2.163189,8.145459,8.428016832318106
57883913.913394414,-0.009571632,2.0650797,8.753258,8.993562775566492
57883932.0,0.05025107,2.0770442,9.370628,9.598192897268412
57883949.74018325,0.1196454,1.9573988,9.557275,9.756394339591221
57883967.82678883,0.27518442,1.6558924,9.760673,9.903961001453787
57883985.913394414,0.43311638,1.2610626,9.9927845,10.081349648890436
57884004.0,0.6221561,0.7776951,10.303863,10.351882949690854
57884022.74018325,0.64369226,0.2943277,10.366077,10.390212745199214
57884040.82678883,0.42115182,0.05025107,10.559903,10.568417355258756
57884058.913394414,0.22493336,-0.27039862,10.715443,10.721213975869889
57884077.0,-0.22971918,-0.088537596,11.060021,11.062760701018817
57884094.74018325,-0.6748001,0.1459674,11.66782,11.688228488920927
57884112.82678883,-1.4548881,0.17468229,12.287583,12.374647844195415
57884130.913394414,-1.7898953,0.17707519,13.120315,13.243026334909276
57884149.0,-2.0722585,0.031107806,13.256711,13.417734887973355
57884166.74018325,-2.3833365,-0.1172525,12.90256,13.121360279124588
57884184.82678883,-2.1009734,-0.17946811,12.407228,12.585134273181138
57884202.913394414,-1.9837208,0.004785816,11.385457,11.556980670366999
57884221.0,-1.6295704,0.05025107,10.600583,10.725221899731553
57884239.74018325,-1.4213874,0.16032484,9.212696,9.323079629801292
57884257.82678883,-1.4261732,-0.0598227,8.229211,8.352093296554735
57884275.913394414,-0.93562704,-0.6460852,7.9827414,8.063311001252039
57884294.0,-1.0122001,-0.80162424,5.912876,6.052210592500197
57884312.74018325,-1.277813,-1.3926725,6.1880603,6.470273026052404
57884330.82678883,-0.4977249,1.1342385,7.011221,7.119792620702042
57884348.913394414,-0.677193,-1.5482116,3.8717253,4.224429703082257
57884367.0,-0.33022133,-1.0217718,1.6534995,1.9715791474253472
57884384.74018325,-0.47618872,-0.5527618,1.8808258,2.0173762649887896
57884402.82678883,-1.1940612,-0.107680865,2.3546216,2.642275571778831
57884420.913394414,-0.7776951,-0.13160995,1.4189945,1.6234765900786072
57884439.0,-0.84230363,-0.2919348,2.5173392,2.6705239149685323
57884456.74018325,-2.268477,-0.48815325,5.4271154,5.902360803943767
57884474.82678883,-7.0710435,-2.732701,10.813552,13.20606746124664
57884492.913394414,-5.384043,-1.3783151,3.3668218,6.497935100760261
57884511.0,-5.3768644,-1.2155973,6.7910733,8.746829376278443
57884528.74018325,-7.8008804,-1.4883888,7.630984,11.013671188269859
57884546.82678883,-8.956655,-1.7731448,9.277305,13.016685420406265
57884564.913394414,-9.889889,-3.799938,10.701085,15.058640490209932
57884583.0,-10.646049,-4.7044573,11.184452,16.14194053818277
57884601.74018325,-12.505338,-7.1165085,16.195202,21.6636271096421
57884619.82678883,-12.153581,-6.176096,13.330891,19.067415865257097
57884637.913394414,-12.718307,-6.9370403,12.476623,19.119204548155295
57884656.0,-9.705635,-8.243568,11.65107,17.259872429098337
57884673.74018325,-9.56924,-8.686256,9.411307,15.98731049687173
57884691.82678883,-10.732193,-9.373021,8.726935,16.70906591494315
57884709.913394414,-9.229446,-9.629062,10.806373,17.16622281930096
57884728.0,-9.274912,-9.384986,11.526638,17.52042631932751
57884745.74018325,-11.64389,-8.688649,9.279697,17.239071094148606
57884763.82678883,-11.450066,-8.181353,6.6307483,15.556521826324735
57884781.913394414,-10.902089,-5.518046,5.305077,13.320969116320555
57884800.0,-10.363685,-4.8073525,4.4962745,12.277340478207465
57884818.74018325,-10.363685,-4.6733494,4.36945,12.17941930866186
57884836.82678883,-10.906875,-4.6398487,5.412758,13.030198286713855
57884854.913394414,-10.559903,-5.355328,5.8554463,13.208987119729382
57884873.0,-9.346699,-5.436687,5.7740874,12.257994657993972
57884891.74018325,-8.250747,-5.5850477,5.841089,11.549281560997866
57884909.82678883,-7.4084435,-5.814767,5.958341,11.144432593419113
57884927.913394414,-7.0471144,-5.8458743,5.9248405,10.905952624531619
57884946.0,-6.7551794,-5.649656,5.697514,10.488695220317748
57884963.74018325,-6.532639,-5.5395823,5.7645154,10.324339308625586
57884981.82678883,-6.738429,-5.2763624,5.8506603,10.36709465135584
57884999.913394414,-6.2885623,-4.5728474,5.75973,9.67633395545896
57885018.0,-7.2529044,-4.2354474,5.814767,10.215436954824552
57885035.74018325,-7.5903044,-3.5869691,5.8721967,10.245084786984686
57885053.82678883,-7.958812,-2.424016,5.577869,10.01654454394134
57885071.913394414,-7.908561,-2.00765,5.0083566,9.573903668096131
57885090.0,-7.9827414,-1.639142,4.5848117,9.35047833428295
57885108.74018325,-7.7769513,-2.005257,4.5728474,9.241913249014376
57885126.82678883,-7.418015,-2.0507221,4.893497,9.120236869767277
57885144.913394414,-7.922919,-2.4910173,5.2691836,9.835756629765157
57885163.0,-6.9226832,-2.677664,4.8719606,8.878593766605757
57885180.74018325,-6.4488873,-2.9815636,4.630277,8.480408834818947
57885198.82678883,-7.10933,-2.988742,5.056215,9.221738551796456
57885216.913394414,-8.329713,-2.7925239,5.7166576,10.481530542343421
57885235.0,-8.707792,-2.4862316,5.8195524,10.764486946457241
57885252.74018325,-9.444808,-2.1464386,6.2885623,11.548056659949987
57885270.82678883,-10.248825,-1.8688612,6.78868,12.434517771425254
57885288.913394414,-10.71305,-1.5314612,7.0399356,12.910286865974467
57885307.0,-11.258633,-1.5003533,6.8867893,13.282911725826699
57885324.74018325,-10.899696,-1.0289505,6.8389316,12.90864429184354
57885342.82678883,-11.466816,-0.86862564,7.0949726,13.512254285465183
57885360.913394414,-9.746315,-0.2656128,6.221561,11.565856108194923
57885379.0,-8.619255,-1.2036327,4.6661706,9.874889189243527
57885397.74018325,-7.1524024,-2.3522286,5.206968,9.154362633805137
57885415.82678883,-8.549861,-2.3474429,5.0274997,10.192466066736818
57885433.913394414,-8.889653,-2.835596,3.6898644,10.034023840215466
57885452.0,-9.56924,-3.254355,2.9289196,10.523295618145923
57885469.74018325,-9.495059,-2.88824,2.7805593,10.306773779020158
57885487.82678883,-8.071279,-3.122745,3.2687125,9.25103034469795
57885505.913394414,-7.293584,-2.3474429,2.7183435,8.129959847244551
57885524.0,-6.905933,-2.41923,2.7709875,7.824509960281555
57885542.74018325,-6.094737,-2.165582,3.5750046,7.390278911375007
57885560.82678883,-11.265811,-1.2060257,1.433352,11.420485691628246
57885578.913394414,-8.801116,2.6441634,3.1993182,9.73071836383146
57885597.0,-5.491724,-0.2967206,3.9530842,6.7730311012817594
57885614.74018325,-7.1954746,-0.9404129,4.5728474,8.577305199502833
57885632.82678883,-7.4706593,-0.3852582,5.125609,9.068133318286886
57885650.913394414,-7.803273,-0.72505116,5.2763624,9.447580053816962
57885669.0,-7.6716633,-1.2730271,5.309863,9.41645691673202
57885687.74018325,-7.7195215,-1.8138243,5.2500405,9.510199578971672
57885705.82678883,-7.6118407,-2.3139422,5.448652,9.642730731707763
57885723.913394414,-7.391693,-3.0772798,4.788209,9.329186556255483
57885742.0,-7.57834,-3.5199678,4.6709566,9.572838974291816
57885759.74018325,-8.353642,-4.292877,4.8336744,10.562979494749973
57885777.82678883,-8.370393,-4.6661706,5.3696856,10.98499660835636
57885795.913394414,-7.8511314,-4.242626,5.1662884,10.311676656485913
57885814.0,-8.38475,-3.6946502,5.601798,10.739395397119154
57885831.74018325,-8.315355,-3.5510757,6.7599654,11.289481813278794
57885849.82678883,-10.811159,-2.7015932,6.7288575,13.017576118343747
57885867.913394414,-11.311276,-3.0054924,8.827438,14.659522876222056
57885886.0,-9.6410265,-3.3859649,9.227054,13.767813036087114
57885903.74018325,-8.753258,-3.0940301,9.801352,13.500335140364998
57885921.82678883,-8.540289,-2.5412683,9.976034,13.37594240213608
57885939.913394414,-8.901618,-1.8640754,9.758279,13.339324913827166
57885958.0,-9.523774,-1.4524952,9.088264,13.244189520042179
57885976.74018325,-10.397185,-0.9499845,8.772401,13.636676493166005
57885994.82678883,-12.036327,-1.0122001,9.889889,15.611137726818312
57886012.913394414,-11.670213,-1.8545038,10.265575,15.652957736166302
57886031.0,-8.396714,-2.574769,9.82528,13.178405384550778
57886048.74018325,-7.2217965,-2.861918,9.112194,11.97401348002299
57886066.82678883,-7.365371,-2.9719918,9.205518,12.158247689335509
57886084.913394414,-9.954497,-2.502982,9.507024,13.990726741377983
57886103.0,-6.65707,-2.8188457,8.147852,10.89265643813356
57886120.74018325,-3.802331,-1.5027462,7.5687685,8.602454520761368
57886138.82678883,-5.7453723,-1.3184924,7.085401,9.216866734702528
57886156.913394414,-6.264633,-0.9140909,6.482388,9.061045358053109
57886175.0,-6.271812,-0.3278284,6.2813835,8.882503920475509
57886193.74018325,-6.7767158,0.12682413,5.7956233,8.917915161595943
57886211.82678883,-6.8963614,-0.1196454,5.7860518,9.002916805870992
57886229.913394414,-6.817395,-0.7489802,5.305077,8.670737448564916
57886248.0,-6.2550616,-0.83033913,3.7903664,7.3608515904651055
57886266.74018325,-6.1832747,-0.16989647,4.613527,7.716630236437895
57886284.82678883,-6.5254602,-0.2584341,4.431666,7.89227993303474
57886302.913394414,-5.807588,-0.7106937,5.728622,8.188423165167253
57886321.0,-5.4773664,-0.9667349,5.173467,7.5961095204595335
57886338.74018325,-5.77648,-0.45465255,5.001178,7.654163018861403
57886356.82678883,-6.2670264,0.19861138,5.0346785,8.041334091860922
57886374.913394414,-7.3581924,0.028714897,4.9581056,8.872802887559198
57886393.0,-7.8200235,0.17707519,5.312256,9.45537873239363
57886410.74018325,-9.334735,0.859054,6.3723145,11.334974344128495
57886428.82678883,-9.093051,1.7827165,6.324456,11.218752083182391
57886446.913394414,-10.081322,2.6944146,6.0253425,12.049799813552232
57886465.0,-10.562296,3.5750046,5.841089,12.588132323246295
57886483.74018325,-11.418958,3.7975452,6.0492716,13.46876528277086
57886501.82678883,-11.938218,3.4242516,6.2095966,13.885446984896026
57886519.913394414,-11.720464,2.3881223,6.0732007,13.414774364018715
57886538.0,-10.045428,0.9284483,5.2715764,11.382537401212169
57886555.74018325,-9.731957,0.22971918,4.606348,10.769503231282902
57886573.82678883,-10.768086,-0.45465255,3.907619,11.464199548759543
57886591.913394414,-12.189474,-0.72505116,3.9171906,12.823936906349068
57886610.0,-12.285191,-1.5051392,3.8501892,12.962072318640036
57886627.74018325,-12.636948,-1.720501,3.6898644,13.276583812716748
57886645.82678883,-11.603211,-2.2301903,4.03205,12.484617795000178
57886663.913394414,-9.45438,-2.0531151,3.4984317,10.28783782715362
57886682.0,-8.612076,-1.5410328,3.615684,9.466562518058382
57886699.74018325,-8.324927,-1.4931747,3.615684,9.198214556526995
57886717.82678883,-8.169388,-1.2802058,3.2423904,8.882056219756201
57886735.913394414,-8.193317,-1.0528796,3.0437791,8.803612333819679
57886754.0,-7.910954,-0.8997334,3.0629225,8.530780012530965
57886772.74018325,-8.303391,-0.99066395,3.4864671,9.059976269289727
57886790.82678883,-8.753258,-1.430959,3.7090075,9.613735273518886
57886808.913394414,-9.071514,-1.8138243,3.7640445,9.987509992057417
57886827.0,-8.801116,-2.1296883,3.8190813,9.82754277918049
57886845.74018325,-9.411307,-2.5388756,4.347914,10.673469206959862
57886863.82678883,-9.349092,-2.680057,3.8477962,10.459147304845049
57886881.913394414,-9.073908,-2.785345,3.3476784,10.064835012622689
57886900.0,-8.683864,-2.7685947,3.2734983,9.684544475785476
57886917.74018325,-8.229211,-2.6728783,3.017457,9.163473077167897
57886935.82678883,-8.181353,-2.2756555,2.8403819,8.954379610176064
57886953.913394414,-8.490038,-1.7683591,2.9217408,9.151197104771674
57886972.0,-8.463716,-1.3328499,2.8212388,9.020552408317988
57886989.74018325,-8.545074,-1.2467052,3.0940301,9.17309030702789
57887007.82678883,-9.2485895,-0.87580436,3.668328,9.987996362238487
57887025.913394414,-10.27754,-0.71787244,4.4603806,11.226672008594885
57887044.0,-10.306255,-0.7154795,4.7762446,11.381709692263918
57887062.74018325,-10.5766535,-0.93084127,5.1686816,11.808782079925772
57887080.82678883,-10.93559,-1.2873845,5.57069,12.340059747628462
57887098.913394414,-12.237332,-1.2562767,6.0516644,13.70960129381647
57887117.0,-12.330655,-1.9143264,6.357957,14.004760458808676
57887134.74018325,-12.1152935,-2.4814458,6.587676,14.011972913564167
57887152.82678883,-11.811395,-2.967206,6.664249,13.88256381316009
57887170.913394414,-11.191631,-3.1059947,6.4728165,13.296509352430109
57887189.0,-11.469209,-2.914562,6.43453,13.469988977665311
57887206.74018325,-11.629534,-2.3881223,6.92029,13.741892259110944
57887224.82678883,-12.0794,-2.0483294,7.468266,14.348608111508947
57887242.913394414,-11.885574,-1.8186102,8.092815,14.493718190762682
57887261.0,-10.646049,-1.8808258,8.4541445,13.724009043542155
57887278.74018325,-9.765458,-1.9167194,8.698221,13.217300472219787
57887296.82678883,-9.229446,-1.9741492,8.784366,12.893604017214606
57887314.913394414,-8.31057,-1.797074,8.356035,11.921340931606688
57887333.0,-7.741058,-1.4955676,7.946848,11.194333144079541
57887351.74018325,-7.580733,-0.96434194,7.3270845,10.586955911151808
57887369.82678883,-7.5448394,-0.21057591,6.558961,9.999445643893749
57887387.913394414,-7.348621,0.28954187,5.752551,9.336911057931584
57887406.0,-7.231368,0.93802,5.080144,8.887093323047756
57887424.74018325,-6.6522846,1.0887731,4.529775,8.121402515163608
57887442.82678883,-6.2909555,1.1749178,4.2043395,7.657220355389894
57887460.913394414,-5.9248405,1.0433079,4.166053,7.317665196184618
57887479.0,-5.6999073,0.75615895,4.000942,7.004873765716438
57887496.74018325,-5.704693,0.39243692,4.0224786,6.991270488822903
57887514.82678883,-5.379257,-0.052643977,3.82626,6.6014727787035055
57887532.913394414,-5.068179,-0.4402951,3.8645465,6.38866322494677
57887551.0,-4.993999,-0.61497736,3.7066147,6.249577241667604
57887569.74018325,-4.917426,-0.703515,3.543897,6.102066680011781
57887587.82678883,-5.1758604,-0.5551547,3.48886,6.266567778363229
57887605.913394414,-5.6640134,-0.2991135,3.5510757,6.691834973188766
57887624.0,-5.8458743,-0.09093051,3.3165705,6.721767220792431
57887641.74018325,-7.238547,0.043072347,3.955477,8.248891816226838
57887659.82678883,-8.669506,0.069394335,4.685314,9.854811877268997
57887677.913394414,-9.5500965,-0.110073775,5.104073,10.82903599516522
57887696.0,-10.138752,0.06221561,4.941355,11.278969462484445
57887713.74018325,-12.043507,0.009571632,5.6376915,13.297733563444575
57887731.82678883,-14.065514,-0.98109233,6.6714277,15.598370870078327
57887749.913394414,-15.407935,-1.8592896,7.528089,17.24916063966053
57887768.0,-14.910211,-3.2902486,8.585754,17.51728573903043
57887785.74018325,-12.536446,-5.0825367,9.069121,16.286301401190016
57887803.82678883,-10.473759,-6.3364205,9.183981,15.303442728721608
57887821.913394414,-9.416093,-6.6762137,8.837009,14.537103040798662
57887840.0,-8.906404,-6.9705415,8.1526375,13.941950337769983
57887858.74018325,-8.839402,-6.4417086,7.1524024,13.068569068434527
57887876.82678883,-8.904011,-5.235683,6.3435993,12.121676470009026
57887894.913394414,-9.014085,-3.9243693,6.1043086,11.57225070044896
57887913.0,-8.815474,-2.8810613,6.0038066,11.048021983560552
57887930.74018325,-8.126316,-2.4599094,5.9679127,10.378060897050355
57887948.82678883,-7.262476,-2.165582,5.9009113,9.604897564251672
57887966.913394414,-6.642713,-1.9406484,5.754944,9.000618459635291
57887985.0,-6.331635,-1.7659662,5.6448703,8.664456076210989
57888003.74018325,-6.221561,-1.4883888,5.4773664,8.421678287404204
57888021.82678883,-6.3938503,-1.4812101,5.4630094,8.539307742647555
57888039.913394414,-6.7791085,-2.079437,5.721443,9.11127215563174
57888058.0,-6.927469,-2.763809,5.802802,9.449919469796873
57888075.74018325,-7.4323726,-3.412287,6.0014133,10.144004467320421
57888093.82678883,-7.810452,-3.9147975,6.176096,10.69920378867167
57888111.913394414,-8.088029,-4.3359494,6.300527,11.131635584312413
57888130.0,-7.753022,-4.608741,6.31967,11.013086426904358
57888148.74018325,-7.396479,-4.630277,6.3435993,10.788355702938725
57888166.82678883,-6.956184,-4.343128,6.350778,10.372253268770677
57888184.913394414,-6.4177794,-3.7664373,6.1043086,9.624787054575785
57888203.0,-6.5996404,-2.9767776,5.958341,9.376475124557999
57888220.74018325,-7.080615,-2.1033661,5.8937325,9.44962118343431
57888238.82678883,-8.006671,-1.5314612,6.1330233,10.20128073859794
57888256.913394414,-8.892047,-1.1414171,6.7336435,11.212193702905497
57888275.0,-9.140909,-1.2467052,7.552018,11.922393512810759
57888292.74018325,-8.552254,-1.6032485,8.222033,11.971352508649858
57888310.82678883,-8.729329,-1.7061435,9.39695,12.93888634061422
57888328.913394414,-9.796566,-0.96434194,10.308648,14.253802452591483
57888347.0,-10.6269045,0.033500712,10.291898,14.793761725545966
57888364.74018325,-10.442651,0.72505116,9.373021,14.050913911872756
57888382.82678883,-10.808765,0.8231604,8.817866,13.973609221074888
57888400.913394414,-10.579046,0.13160995,8.643184,13.661557931177212
57888419.0,-9.863567,-0.77290934,8.77958,13.227560916047532
57888437.74018325,-8.533111,-1.770752,8.841795,12.414784927893434
57888455.82678883,-8.056922,-2.5460541,9.045193,12.377879463036463
57888473.913394414,-7.4945884,-2.8762755,9.162445,12.181634308061453
57888492.0,-6.86286,-2.6106627,8.638398,11.3373862560634
57888509.74018325,-7.2959766,-2.1440456,8.700614,11.555470135811133
57888527.82678883,-6.094737,-1.8210031,7.994706,10.216515815864751
57888545.913394414,-5.4821525,-0.9667349,8.169388,9.88572064619865
57888564.0,-3.1945324,0.16989647,8.241176,8.840298859662168
57888581.74018325,-2.2325833,1.14381,8.140674,8.518409633365543
57888599.82678883,-1.9238981,1.8281817,8.959048,9.34388427227684
57888617.913394414,-2.88824,0.57429796,11.473994,11.84585525643869
57888636.0,-2.6968074,-1.4213874,12.802058,13.160007649273519
57888654.74018325,-3.644399,-2.0985804,12.986312,13.650274104493622
57888672.82678883,-4.886318,-1.9956853,13.512752,14.507009685916119
57888690.913394414,-5.805195,-2.1057591,13.675469,15.005097891890568
57888709.0,-6.2383113,-2.6202343,13.022206,14.675149224762254
57888727.74018325,-7.3581924,-3.0126712,12.627376,14.922124774981048
57888745.82678883,-7.343835,-3.101209,10.736979,13.372813010557914
57888763.913394414,-7.3773355,-3.3333209,9.490273,12.474028576064192
57888782.0,-7.9516335,-3.2711053,8.691042,12.225498609372721
57888799.74018325,-8.322535,-3.4577522,8.370393,12.29976089512633
57888817.82678883,-8.183745,-3.6731138,8.131102,12.107033779880993
57888835.913394414,-8.293819,-3.15146,7.2720475,11.471783147297426
57888854.0,-9.260554,-2.1775463,6.6235695,11.591860989370515
57888871.74018325,-10.265575,-1.6008555,6.5206747,12.266375461224287
57888889.82678883,-9.619491,-1.4501023,5.7669086,11.309051179488943
57888907.913394414,-8.272284,-1.4477094,4.5680614,9.560006801131177
57888926.0,-8.104779,-1.2108115,3.9435124,9.094217788041313
57888944.74018325,-8.341678,-0.9691278,3.0844586,8.946322451350097
57888962.82678883,-8.150245,-0.8542682,2.4144442,8.543173210960308
57888980.913394414,-8.487645,-0.61497736,2.8738825,8.982066322575436
57888999.0,-8.580969,-0.14118157,3.5080032,9.271410230697319
57889016.74018325,-8.777187,0.10289505,4.0559793,9.669569127231679
57889034.82678883,-8.602505,0.009571632,4.5034533,9.710009037917784
57889052.913394414,-8.437394,-0.2943277,5.0346785,9.829762657591766
57889071.0,-8.255533,-0.5599405,5.518046,9.945661875196906
57889088.74018325,-8.044957,-0.84230363,5.8243384,9.96763393863733
57889106.82678883,-8.044957,-1.3639576,6.0014133,10.129100407433212
57889124.913394414,-8.461323,-1.8449322,6.0851655,10.584280839779153
57889143.0,-8.774794,-2.443159,6.0038066,10.909249714435937
57889160.74018325,-9.43763,-2.9600272,5.9200544,11.527257485655433
57889178.82678883,-9.971248,-3.4051082,6.116273,12.18315820884471
57889196.913394414,-10.507259,-3.874118,6.6762137,13.037757143737288
57889215.0,-10.457008,-4.3885937,7.4658732,13.577482594878253
57889233.74018325,-10.193789,-5.125609,8.219639,14.062278161369267
57889251.82678883,-9.583597,-5.652049,8.624041,14.077111654259584
57889269.913394414,-9.054764,-5.7860518,8.676684,13.811299423437145
57889288.0,-8.530717,-5.8506603,8.714972,13.526052470727336
57889306.74018325,-8.171782,-5.604191,8.423037,13.005096313498568
57889324.82678883,-7.997099,-5.604191,7.872668,12.543502326643306
57889342.913394414,-7.7889156,-5.752551,7.2768335,12.112446285463834
57889361.0,-7.1236873,-5.199789,6.066022,10.70426780761703
57889378.74018325,-6.432137,-5.123216,5.417544,9.847309864189356
57889396.82678883,-6.101916,-5.1926107,4.9604983,9.423541167582036
57889414.913394414,-7.0638647,-4.8791394,5.3266134,10.103316094114744
57889433.0,-8.600112,-4.630277,5.7501583,11.334271568315799
57889450.74018325,-8.643184,-3.907619,5.4319015,10.930675633862677
57889468.82678883,-7.65252,-4.8815327,5.9176617,10.835550002063401
57889486.913394414,-8.262712,-4.7092433,7.2792263,11.976498552588339
57889505.0,-8.523539,-4.058372,8.444572,12.666171348836594
57889523.74018325,-9.99757,-3.175389,8.7556505,13.663671427708266
57889541.82678883,-10.011928,-2.342657,8.557039,13.377206754190277
57889559.913394414,-10.777658,-1.093559,7.8702745,13.39010843708128
57889578.0,-11.698928,-0.48097453,8.104779,14.240214025306422
57889595.74018325,-13.093993,-0.74658734,9.344306,16.10360518523518
57889613.82678883,-11.586461,-1.6511066,10.256004,15.561421835973105
57889631.913394414,-11.1796665,-2.134474,10.789622,15.683011994217892
57889650.0,-10.480937,-1.8018597,10.58144,15.002120225156613
57889667.74018325,-9.84921,-1.2419193,9.583597,13.79835615681163
57889685.82678883,-9.399343,-0.5240469,8.131102,12.439336546594944
57889703.913394414,-9.193553,1.277813,6.716893,11.457350234684588
57889722.0,-9.095444,1.6846073,5.9487696,10.997857203393462
57889739.74018325,-8.461323,1.8856115,5.4558306,10.242831892360512
57889757.82678883,-8.004277,1.2825987,5.7023,9.91109151445847
57889775.913394414,-7.786523,0.40200856,6.5302463,10.170332740402644
57889794.0,-7.496981,-0.19861138,6.8389316,10.149638221340949
57889812.74018325,-7.037543,-0.4115802,7.0447216,9.966168379040543
57889830.82678883,-6.86286,-0.55036885,6.9083257,9.75329263520432
57889848.913394414,-6.326849,-0.4737958,6.6355343,9.180621774987527
57889867.0,-5.805195,-0.5623334,6.3627424,8.631396103153783
57889884.74018325,-5.3457565,-1.1414171,6.2550616,8.306969433750146
57889902.82678883,-4.9604983,-1.6463208,6.226347,8.129225825699796
57889920.913394414,-4.8049593,-1.899969,5.9942346,7.913808470986308
57889939.0,-4.9102473,-2.4862316,6.152167,8.254758319410984
57889957.74018325,-4.7044573,-2.9648132,5.876982,8.090794350787908
57889975.82678883,-4.6015625,-3.441002,5.5515466,7.989652173742097
57889993.913394414,-5.34815,-3.8334389,6.0540576,8.94145265863724
57890012.0,-5.333792,-3.543897,6.0038066,8.778054268234877
57890029.74018325,-5.0155354,-3.2423904,5.829124,8.345500432091615
57890047.82678883,-4.737958,-3.177782,5.8482676,8.169992556330621
57890065.913394414,-4.5393467,-3.3692145,6.1545596,8.356786384715317
57890084.0,-4.7953877,-2.94567,5.5898333,7.932146699601576
57890102.74018325,-4.8576035,-3.1203523,4.91264,7.580695351280616
57890120.82678883,-5.106466,-2.6226273,4.917426,7.558786108188093
57890138.913394414,-6.101916,-1.483603,5.1208234,8.102918549920922
57890157.0,-7.343835,-0.6484781,4.682921,8.733967337106638
57890174.74018325,-7.9994917,-0.09810923,4.7403507,9.299054663694077
57890192.82678883,-8.461323,0.09093051,5.235683,9.950609616725343
57890210.913394414,-8.686256,-0.33740005,6.0755935,10.60555130431786
57890229.0,-10.2344675,-0.5886554,7.2146177,12.535611223456902
57890246.74018325,-10.545546,-1.1868824,7.764987,13.149610388894217
57890264.82678883,-10.607761,-0.9188767,8.099994,13.378297000102812
57890282.913394414,-10.332577,-0.9954498,7.8248096,12.999258172738212
57890301.0,-8.076065,-2.3115492,7.6261983,11.345703420201348
57890319.74018325,-7.317513,-4.2019467,8.942298,12.295000857893989
57890337.82678883,-8.332106,-6.669035,10.5862255,15.032238308492559
57890355.913394414,-8.798723,-9.798959,10.827909,17.04936178355926
57890374.0,-7.492195,-11.050449,11.359135,17.52927143288765
57890391.74018325,-6.9657555,-8.667113,11.088737,15.703524626519942
57890409.82678883,-6.5302463,-5.9439836,9.451987,12.935034442316018
57890427.913394414,-5.209361,-3.0413861,7.817631,9.874351922519029
57890446.0,-4.4340587,-1.354386,6.4297442,7.926969690207938
57890463.74018325,-3.7042217,-0.42354473,5.568297,6.701237200791408
57890481.82678883,-3.4697168,-0.234505,5.805195,6.767142399510464
57890499.913394414,-3.4673238,-0.088537596,6.020557,6.948185362395055
57890518.0,-3.48886,-0.4450809,6.489567,7.381376630049019
57890535.74018325,-3.802331,-0.90691215,6.8867893,7.918843194809019
57890553.82678883,-3.8693323,-1.3926725,7.207439,8.298098943661767
57890571.913394414,-3.5510757,-1.7563945,7.9755626,8.90531633650818
57890590.0,-3.8166883,-1.4931747,8.078458,9.05859613416124
57890608.74018325,-4.094266,-1.5529974,7.9755626,9.098594055659452
57890626.82678883,-4.563276,-2.2277975,6.929862,8.591248855214605
57890644.913394414,-4.6948857,-3.206497,6.700143,8.78723454606297
57890663.0,-5.1638956,-3.412287,6.551782,9.013066498899937
57890681.74018325,-4.4914885,-4.08948,6.513496,8.906343006983745
57890699.82678883,-4.264162,-4.189982,6.5493894,8.867554805886476
57890717.913394414,-4.816924,-4.5345607,6.4608517,9.247032078086102
57890736.0,-6.45128,-4.8791394,7.415622,10.973443605811092
57890753.74018325,-5.9487696,-5.061001,6.484781,10.151550398527615
57890771.82678883,-6.0014133,-5.022714,6.345992,10.075526387602629
57890789.913394414,-7.10933,-4.9269977,6.9920774,11.12236601413099
57890808.0,-7.8822393,-5.2572193,8.396714,12.659891672070223
57890825.74018325,-8.332106,-4.6757426,9.846817,13.72029024066837
57890843.82678883,-8.04735,-3.9770133,10.46658,13.788610289194372
57890861.913394414,-8.657541,-2.861918,10.796802,14.132038926942176
57890880.0,-8.583362,-2.4144442,10.191396,13.541351352312427
57890898.74018325,-8.427822,-2.8523464,9.406522,12.947846144659001
57890916.82678883,-8.76283,-3.776009,9.392164,13.388733255236545
57890934.913394414,-9.183981,-3.9506912,10.054999,14.179438382958594
57890953.0,-8.896832,-3.8908687,9.952105,13.90456302110529
57890970.74018325,-9.028442,-3.6324344,9.863567,13.8563089811521
57890988.82678883,-8.851367,-3.5199678,9.473523,13.434452319065889
57891006.913394414,-8.626433,-3.6300416,8.889653,12.908078043675927
57891025.0,-8.238783,-3.8406174,8.289034,12.30186863803332
57891042.74018325,-7.4874096,-3.799938,7.5903044,11.318725732461033
57891060.82678883,-6.6044264,-4.0966587,7.3581924,10.702525681946314
57891078.913394414,-7.1236873,-3.4003224,7.1141157,10.626370752289304
57891097.0,-6.8341455,-2.81406,6.539818,9.868824543576315
57891114.74018325,-6.8413243,-1.9334698,5.9822702,9.291371286903273
57891132.82678883,-7.29837,-1.1892753,5.757337,9.37163324760733
57891150.913394414,-7.324692,-0.5910483,5.4319015,9.138162008494877
57891169.0,-6.925076,-0.60540575,4.9102473,8.51080033105385
57891187.74018325,-6.745608,-0.7322299,5.0107493,8.4348678984065
57891205.82678883,-6.7264647,-0.31347096,5.128002,8.46404134649125
57891223.913394414,-6.4919596,-0.2057901,5.228504,8.338173846311085
57891242.0,-6.2095966,-0.21536173,5.0968943,8.036404800335324
57891259.74018325,-6.1043086,-0.15314612,5.072965,7.938577398333408
57891277.82678883,-6.089951,0.32064968,4.663778,7.67731363388061
57891295.913394414,-6.164131,0.12203831,5.1926107,8.060682986944911
57891314.0,-6.3483853,0.4091873,4.836067,7.991055887192029
57891332.74018325,-6.4488873,0.5623334,4.8887115,8.111958234057242
57891350.82678883,-7.1739383,0.70112205,4.8288884,8.676123906495206
57891368.913394414,-7.6716633,0.83991075,4.7977805,9.087274926110286
57891387.0,-8.267497,0.63412064,4.8576035,9.609886960536803
57891404.74018325,-9.250982,0.7705164,5.075358,10.579868728635388
57891422.82678883,-10.567082,0.64369226,5.4271154,11.896686231267305
57891440.913394414,-10.253612,-0.016750356,4.8839254,11.357357392181303
57891459.0,-11.074379,-0.571905,4.790602,12.079685968065148
57891477.74018325,-11.275383,-1.1892753,5.204575,12.475425382186536
57891495.82678883,-10.378042,-2.5508401,5.910483,12.212467001503875
57891513.913394414,-10.248825,-3.2423904,6.7097144,12.671691943706827
57891532.0,-9.887496,-3.7472942,6.4704237,12.396417782121226
57891549.74018325,-9.858782,-4.292877,6.121059,12.37302464000351
57891567.82678883,-9.43045,-4.637456,5.5132604,11.867410231075867
57891585.913394414,-9.329948,-4.1804104,5.025107,11.391903315802026
57891604.0,-9.210303,-3.986585,5.1471453,11.278991357978164
57891621.74018325,-9.277305,-3.2615337,5.329006,11.185003133092842
57891639.82678883,-9.267733,-2.5101607,5.494117,11.062418510832181
57891657.913394414,-8.60729,-2.577162,4.948534,10.257445776970991
57891676.0,-8.083243,-2.3546216,5.022714,9.80360730558051
57891694.74018325,-7.683628,-2.3641932,4.8576035,9.39275574538817
57891712.82678883,-7.7889156,-2.5819478,4.993999,9.605919356201634
57891730.913394414,-7.6668777,-2.474267,5.262005,9.62245849427636
57891749.0,-7.4515157,-2.524518,5.3505425,9.514545832775033
57891766.74018325,-7.3845143,-2.6202343,5.068179,9.331833560980499
57891784.82678883,-7.2457256,-3.0629225,5.209361,9.435013287739588
57891802.913394414,-7.592697,-3.4433947,5.5324035,10.005673554569395
57891821.0,-7.6405554,-3.9961565,5.3457565,10.1451695969192
57891838.74018325,-7.317513,-4.6039553,5.228504,10.10344767827216
57891856.82678883,-6.7838945,-4.9892135,5.125609,9.85826270478696
57891874.913394414,-6.2885623,-5.2715764,5.2021823,9.715875370981841
57891893.0,-6.3723145,-4.6900997,5.1423593,9.436486976261177
57891910.74018325,-7.212225,-3.7281508,5.5012956,9.807117370397124
57891928.82678883,-8.04735,-2.763809,6.0827723,10.459378617519699
57891946.913394414,-9.100229,-2.187118,6.953791,11.659882601040458
57891965.0,-9.645813,-1.9238981,7.970777,12.660030739057532
57891983.74018325,-9.66017,-2.110545,8.571397,13.085951671832431
57892001.82678883,-9.356271,-2.4479449,9.195946,13.345323678869427
57892019.913394414,-9.394557,-2.1392598,10.054999,13.926131501897649
57892038.0,-9.930569,-1.2969562,10.526402,14.529398993560726
57892056.74018325,-10.062179,-0.55036885,10.337363,14.436461681896306
57892074.82678883,-10.07175,0.016750356,9.169623,13.62066131283849
57892092.913394414,-9.784601,-0.08375178,7.8750606,12.56033481016834
57892111.0,-9.995177,-0.72505116,7.1835103,12.330129061617823
57892128.74018325,-10.330184,-1.2108115,7.3222985,12.719859326481975
57892146.82678883,-10.2344675,-1.6582853,7.741058,12.939019054940614
57892164.913394414,-9.485488,-2.1727605,8.0306,12.616889757325467
57892183.0,-8.566611,-2.3139422,8.248354,12.115135007071851
57892200.74018325,-8.159817,-2.2230117,8.284247,11.838629263932328
57892218.82678883,-7.7769513,-1.899969,7.9875274,11.308910101742054
57892236.913394414,-7.5903044,-1.3759222,7.573554,10.810393284984048
57892255.0,-7.3581924,-0.8542682,6.9633627,10.166670528973597
57892273.74018325,-7.1452236,-0.35415038,6.2909555,9.526581962521046
57892291.82678883,-6.7551794,0.014357449,5.8363028,8.92721038375449
57892309.913394414,-6.4369226,0.46422416,5.616155,8.555154797731216
57892328.0,-6.0277357,0.67240715,5.436687,8.145139322344008
57892345.74018325,-5.8626246,0.89494765,5.2380757,7.9125682010138885
57892363.82678883,-5.752551,0.7633377,4.922212,7.609382263021506
57892381.913394414,-5.503689,0.64369226,4.668564,7.245717504595449
57892400.0,-5.4199367,0.63651353,4.529775,7.092229893094622
57892417.74018325,-5.2572193,0.6101916,4.405344,6.88605433578178
57892435.82678883,-5.204575,0.53840435,4.424487,6.852267171374225
57892453.913394414,-5.0274997,0.47140288,4.4173083,6.708992959157229
57892472.0,-5.173467,0.34218585,4.3550925,6.771165530363695
57892489.74018325,-5.534796,-0.08135887,4.314413,7.018172522951589
57892507.82678883,-6.2095966,-0.18664683,4.4388447,7.635264844430656
57892525.913394414,-7.2720475,0.0071787243,4.7475295,8.684570382564072
57892544.0,-8.040172,0.17468229,5.2189326,9.5870817862041
57892562.74018325,-8.746079,0.5910483,5.673585,10.441877356079168
57892580.82678883,-9.743921,1.067237,6.389065,11.700561646461038
57892598.913394414,-10.55751,1.0026284,6.7097144,12.549364463515829
57892617.0,-11.545781,0.6460852,7.049507,13.543191423319284
57892635.74018325,-12.476623,-0.36611494,7.305548,14.462751923950165
57892653.82678883,-13.565396,-1.2969562,7.6142335,15.610208705012779
57892671.913394414,-12.282797,-2.0985804,7.729093,14.663219988840178
57892690.0,-10.662799,-3.1131735,7.9013824,13.631543404418041
57892707.74018325,-9.504631,-3.5582542,7.5137315,12.627562886482524
57892725.82678883,-9.310805,-3.3716075,7.1236873,12.198596133582853
57892743.913394414,-9.289269,-3.1825678,6.7312503,11.904998402234582
57892762.0,-9.131337,-2.9121692,5.826731,11.216632248734852
57892779.74018325,-9.167231,-2.7183435,5.333792,10.948828827350313
57892797.82678883,-9.15048,-2.7135577,5.135181,10.838116235047043
57892815.913394414,-8.580969,-2.811667,4.922212,10.284292453581529
57892834.0,-7.9205256,-2.8044882,4.630277,9.59371382421446
57892852.74018325,-7.5663753,-2.2421548,4.1540885,8.918169352139786
57892870.82678883,-7.3031554,-1.8951832,4.0727296,8.574084473156743
57892888.913394414,-7.29837,-1.5912839,4.3335567,8.63586143817825
57892907.0,-7.0590787,-1.4788172,4.635063,8.573289999631328
57892924.74018325,-7.1021514,-1.5242825,4.9652843,8.798752174493535
57892942.82678883,-7.2696548,-2.1201165,5.520439,9.371127020665991
57892960.913394414,-7.5161242,-2.68245,5.7429795,9.832063594675631
57892979.0,-7.705164,-3.2926416,5.491724,10.018486585563837
57892996.74018325,-7.968384,-3.799938,5.494117,10.398076456008054
57893014.82678883,-8.044957,-3.8621538,5.446259,10.454630658315217
57893032.913394414,-7.6166263,-3.668328,5.343364,10.001058211306026
57893051.0,-7.5639825,-3.5893621,4.91264,9.707285064054865
57893069.74018325,-7.2241898,-3.35725,4.532168,9.165183719334165
57893087.82678883,-7.839167,-2.8284173,4.345521,9.39872525602644
57893105.913394414,-8.719757,-2.2038684,4.663778,10.131239968377589
57893124.0,-10.421115,-1.430959,5.510867,11.875055224907168
57893141.74018325,-11.411778,-1.5697477,6.6259627,13.288949042897658
57893159.82678883,-11.792251,-2.0985804,7.0423284,13.894445387841564
57893177.913394414,-11.21556,-2.9337053,7.6381626,13.882973053524482
57893196.0,-10.866196,-2.8690968,8.346463,13.99890626329626
57893213.74018325,-10.629298,-1.8808258,8.588147,13.79404764948848
57893231.82678883,-10.18661,-0.7489802,8.277069,13.14678157812219
57893249.913394414,-10.157895,0.19382556,7.1978674,12.451092092130596
57893268.0,-9.487881,0.48097453,6.1617384,11.323349437278011
57893286.74018325,-8.540289,-0.009571632,5.161503,9.97886471692392
57893304.82678883,-8.092815,-0.7992313,5.080144,9.588549856775042
57893322.913394414,-8.279462,-1.3783151,5.518046,10.044803391925997
57893341.0,-8.506788,-1.8568966,5.7645154,10.442372568380842
57893359.74018325,-9.016478,-2.132081,5.860232,10.962890312726339
57893377.82678883,-9.004513,-2.7542372,5.9726987,11.1507939933448
57893395.913394414,-9.102622,-3.201711,6.401029,11.579371868164785
57893414.0,-8.892047,-3.3979294,6.92029,11.768807830094488
57893431.74018325,-8.64797,-3.22564,7.1141157,11.653445015251348
57893449.82678883,-8.363214,-2.8906329,7.1141157,11.353842924989975
57893467.913394414,-7.8200235,-2.3474429,6.925076,10.706069928554019
57893486.0,-7.3557997,-1.8257889,6.7049284,10.119158027376086
57893503.74018325,-7.0088277,-1.3137065,6.4464946,9.61284469469151
57893521.82678883,-6.843717,-0.7968384,6.1593456,9.241696382809971
57893539.913394414,-6.489567,-0.2967206,5.8985186,8.77468202480861
57893558.0,-6.331635,0.15553902,5.518046,8.400156297241354
57893575.74018325,-6.063629,0.63651353,5.178253,7.999190600024671
57893593.82678883,-5.7453723,0.78487384,4.7953877,7.524697535691048
57893611.913394414,-5.4199367,0.8997334,4.3526998,7.00936727329953
57893630.0,-5.281148,0.9140909,4.118195,6.759113583110718
57893648.74018325,-5.0322857,0.8255533,3.8454032,6.386905619166109
57893666.82678883,-4.948534,0.80880296,3.7664373,6.271220049726533
57893684.913394414,-5.099287,0.60301286,3.7090075,6.334278889719857
57893703.0,-5.4773664,0.39961565,3.7066147,6.625724706160827
57893720.74018325,-6.8843966,0.4785816,4.132552,8.043751794197414
57893738.82678883,-8.267497,0.43550926,4.5728474,9.457912470743294
57893756.913394414,-9.217482,0.2392908,4.8647823,10.425226200600251
57893775.0,-9.667349,-0.14357449,5.503689,11.125144625158846
57893792.74018325,-9.990392,-0.31825677,5.8458743,11.57944152438775
57893810.82678883,-11.320848,-0.15793194,6.295741,12.954647686288391
57893828.913394414,-12.299547,0.16032484,6.484781,13.90528478951406
57893847.0,-12.402443,-0.2632199,6.6546774,14.077450350900754
57893864.74018325,-12.337834,-0.68915755,6.8580747,14.132596170946728
57893882.82678883,-11.842503,-1.1414171,7.1524024,13.881807173156785
57893900.913394414,-10.78723,-1.3639576,7.3294773,13.112816207768377
57893919.0,-9.719993,-1.5817122,7.341442,12.283193723256256
57893937.74018325,-8.765223,-1.8257889,6.9107184,11.3102019500622
57893955.82678883,-8.714972,-1.6678569,6.6020336,11.059807017086264
57893973.913394414,-9.353878,-1.5075321,6.020557,11.22563108522917
57893992.0,-9.5405245,-1.5410328,5.4773664,11.108462202556439
57894010.74018325,-9.765458,-1.8066456,5.2380757,11.227892736960657
57894028.82678883,-9.54531,-1.9621847,5.0418572,10.971938562451303
57894046.913394414,-8.899225,-1.7898953,4.7236004,10.232904354310522
57894065.0,-8.0617075,-1.4429235,4.474738,9.332547144860962
57894082.74018325,-7.8463454,-1.0576653,4.513025,9.113242379831135
57894100.82678883,-7.6573057,-0.8183746,4.4388447,8.888611243602442
57894118.913394414,-7.44673,-0.8566611,4.323985,8.653583200812147
57894137.0,-7.731486,-0.67240715,4.544132,8.993172008640284
57894154.74018325,-7.5950904,-0.75376606,4.7594943,8.994795575726698
57894172.82678883,-7.9300976,-1.2155973,5.128002,9.52158228727227
57894190.913394414,-8.018635,-1.7540016,5.2261114,9.730738370814288
57894209.0,-7.817631,-2.474267,5.0370717,9.623380016937443
57894227.74018325,-7.755415,-3.1562457,4.9533195,9.728500542739036
57894245.82678883,-7.628591,-3.5869691,4.6733494,9.638565379978298
57894263.913394414,-7.609448,-3.6731138,4.218697,9.444197595892593
57894282.0,-7.6166263,-3.6061125,3.955477,9.309287934855003
57894299.74018325,-7.8248096,-3.5343254,3.802331,9.390251452591583
57894317.82678883,-7.7937016,-3.330928,3.6108983,9.212787444849113
57894335.913394414,-8.1526375,-2.81406,3.5056105,9.309873085478475
57894354.0,-9.038013,-2.0555081,3.8597608,10.040345908909275
57894371.74018325,-9.858782,-1.1773108,4.343128,10.837176941791835
57894389.82678883,-10.265575,-0.45943835,5.0849295,11.465148132407448
57894407.913394414,-10.550332,0.23211208,5.757337,12.021244139417306
57894426.0,-10.84466,0.74658734,6.2430973,12.535561697391767
57894444.74018325,-11.000198,0.8925547,6.5469966,12.83215392722935
57894462.82678883,-9.30602,0.16511066,6.2287397,11.199395877492755
57894480.913394414,-8.0641,-0.82076746,6.092344,10.140020880044126
57894499.0,-8.758043,-1.3208853,7.255297,11.449340143598413
57894516.74018325,-9.669742,-1.1533817,8.042564,12.63000535971996
57894534.82678883,-10.351721,-0.34936458,6.7838945,12.381494572899099
57894552.913394414,-10.669977,-0.13639577,7.2505116,12.901043812356326
57894571.0,-9.9927845,-0.47140288,6.7862873,12.088492795086319
57894589.74018325,-9.317985,-1.3496002,6.6307483,11.515775622076784
57894607.82678883,-8.784366,-1.6439278,6.6594634,11.14522487029797
57894625.913394414,-8.0641,-1.7300725,6.1617384,10.295138647696339
57894644.0,-7.5089455,-1.5386399,5.4319015,9.394531876019396
57894661.74018325,-7.0136137,-1.3567789,5.003571,8.721659754218454
57894679.82678883,-6.774323,-1.1150951,4.680528,8.309165514608372
57894697.913394414,-6.6786065,-0.8446966,4.4364514,8.062220423211944
57894716.0,-6.532639,-0.39482984,4.264162,7.811167676418131
57894734.74018325,-6.4297442,-0.46661708,4.036836,7.606272863083296
57894752.82678883,-6.3435993,-0.71787244,3.8477962,7.454000839536207
57894770.913394414,-6.3435993,-1.0098072,3.6826856,7.404264709515706
57894789.0,-6.2885623,-1.4692456,3.596541,7.391874295385552
57894806.74018325,-6.3794928,-2.0507221,4.08948,7.850301662170712
57894824.82678883,-6.2359185,-2.4862316,4.788209,8.245906410769033
57894842.913394414,-6.424958,-2.7494514,5.503689,8.895513527135291
57894861.0,-6.264633,-2.9552414,6.046879,9.194771557662754
57894878.74018325,-6.3435993,-2.5173392,6.374707,9.338904542967882
57894896.82678883,-6.5924616,-3.0653152,6.5254602,9.769254733325857
57894914.913394414,-7.2792263,-2.785345,7.3007627,10.679251766736657
57894933.0,-7.324692,-2.7925239,8.341678,11.44696005420737
57894950.74018325,-7.1284733,-3.1706033,8.863332,11.80790036445971
57894968.82678883,-7.0160065,-3.6276486,9.172017,12.104134724192935
57894986.913394414,-7.4706593,-4.0440145,9.373021,12.649835031308816
57895005.0,-9.655384,-3.433823,9.497452,13.972085566410225
57895023.74018325,-11.12463,-3.491253,10.189003,15.484250782033918
57895041.82678883,-12.397656,-3.1155663,10.693906,16.666380926909948
57895059.913394414,-10.33497,-3.2447834,10.727407,15.245244673584763
57895078.0,-7.1236873,-4.4388447,9.406522,12.60686000379886
57895095.74018325,-6.197632,-4.0176926,7.6620917,10.642374991266172
57895113.82678883,-4.950927,-4.29527,6.7408223,9.402111880445068
57895131.913394414,-6.147381,-4.118195,4.922212,8.88695640757453
57895150.0,-6.4106007,-4.1612673,3.5319324,8.419411698869437
57895168.74018325,-6.9107184,-3.2399976,2.4575167,8.01841640119065
57895186.82678883,-8.131102,-2.266084,2.5699832,8.82353501028597
57895204.913394414,-7.6955924,-3.122745,2.9719918,8.82079440760468
57895223.0,-6.8102164,-2.4623024,2.6369848,7.706858592144127
57895240.74018325,-7.3079414,-1.3950654,3.228033,8.110019237042543
57895258.82678883,-6.9107184,-1.6822144,3.7568657,8.043749994840866
57895276.913394414,-7.420408,-2.060294,3.9171906,8.640118543725448
57895295.0,-7.5831256,-2.3139422,3.3692145,8.614506876039188
57895313.74018325,-7.764987,-2.5867336,3.3716075,8.851776712140575
57895331.82678883,-8.513967,-2.7997024,3.618077,9.665218506768678
57895349.913394414,-8.193317,-2.4311945,3.7257578,9.323219473099414
57895368.0,-7.9324903,-2.577162,3.4505734,9.02621865027796
57895385.74018325,-7.896597,-2.6441634,3.646792,9.091036033234747
57895403.82678883,-7.9827414,-2.7231295,3.7951522,9.248933709039601
57895421.913394414,-7.8487387,-3.2088897,3.9482985,9.353541218851074
57895440.0,-8.2028885,-3.438609,4.23784,9.852446369502006
57895457.74018325,-10.074143,-4.0751224,4.493881,11.759674578898505
57895475.82678883,-8.312963,-4.3598785,3.8095098,10.130461948520772
57895493.913394414,-7.3199058,-2.7518444,3.1801748,8.441989118758686
57895512.0,-7.573554,-2.3330853,3.172996,8.536387457467479
57895529.74018325,-7.5065527,-2.4024796,2.8499537,8.38107855579681
57895547.82678883,-7.209832,-2.6680925,2.3809435,8.04793681678556
57895565.913394414,-7.3390493,-2.6369848,2.3785505,8.153087509913762
57895584.0,-7.3462276,-3.177782,2.7662017,8.468602614103974
57895602.74018325,-7.6214123,-3.4984317,3.7185793,9.173482534814392
57895620.82678883,-7.31512,-4.020086,3.5893621,9.086010804897407
57895638.913394414,-7.6692705,-4.343128,3.876511,9.628489412139125
57895657.0,-8.145459,-4.493881,4.2282686,10.218694834301882
57895674.74018325,-8.671899,-4.357486,5.0107493,10.922322328783721
57895692.82678883,-9.514202,-4.4340587,5.312256,11.764394589666978
57895710.913394414,-10.181824,-4.7331724,5.881768,12.67547457655617
57895729.0,-9.983212,-5.178253,5.5946193,12.56099482847141
57895746.74018325,-9.064336,-5.831517,5.080144,11.915395113168552
57895764.82678883,-9.442415,-5.9056973,4.843246,12.14468992802897
57895782.913394414,-9.952105,-4.91264,5.0921082,12.210978323669739
57895801.0,-10.823123,-3.8501892,5.355328,12.674521148213438
57895819.74018325,-11.679785,-3.988978,5.1926107,13.390016019873297
57895837.82678883,-12.02197,-4.0775156,4.6159196,13.507798114526569
57895855.913394414,-11.543388,-4.7044573,3.0772798,12.839446092941678
57895874.0,-11.323241,-4.6757426,1.5290682,12.345703915362098
57895892.74018325,-11.294526,-4.4364514,0.8279462,12.162808618873044
57895910.82678883,-12.160759,-5.2141466,0.77530223,13.254149454801524
57895928.913394414,-10.870981,-5.6999073,0.2680057,12.277581121140548
57895947.0,-10.361292,-6.3723145,-0.3565433,12.169218837745879
57895964.74018325,-10.734586,-7.5950904,-0.48097453,13.158574059299772
57895982.82678883,-11.524245,-8.669506,0.38765112,14.426324219803819
57896000.913394414,-11.818573,-9.739136,-0.1459674,15.315049600464498
57896019.0,-12.158366,-12.225368,0.40440148,17.24671061630032
57896036.74018325,-12.471837,-12.562767,1.7946811,17.79299618112574
57896054.82678883,-11.691749,-13.247139,3.3979294,17.992487614882673
57896072.913394414,-12.077007,-12.505338,5.3242207,18.181993912511395
57896091.0,-12.672841,-11.579282,5.673585,18.07955301989045
57896109.74018325,-11.785072,-9.28209,6.86286,16.496786480793283
57896127.82678883,-11.538603,-7.367764,8.365606,16.043898195218674
57896145.913394414,-9.574025,-6.8389316,9.4495945,15.090651952269452
57896164.0,-8.521146,-5.2261114,9.538132,13.816588999023962
57896181.74018325,-7.341442,-3.9674416,10.054999,13.066765796430865
57896199.82678883,-6.7312503,-2.28762,9.703242,12.028958441037782
57896217.913394414,-5.7884445,-1.1844895,9.164838,10.904281758622824
57896236.0,-6.9370403,-0.30389932,10.241647,12.373609667074906
57896253.74018325,-3.988978,0.31825677,9.15048,9.987217684947836
57896271.82678883,-2.5651975,1.1581675,8.597719,9.046676858107814
57896289.913394414,-1.9238981,1.5003533,8.427822,8.773860472317104
57896308.0,-1.8210031,1.978935,7.91574,8.360094244207694
57896325.74018325,-1.3496002,1.718108,7.8128448,8.112574170285969
57896343.82678883,-2.112938,1.5506045,8.2028885,8.61140296645654
57896361.913394414,-1.9454343,1.2802058,8.63122,8.939888153347901
57896380.0,-1.7396442,0.7681235,8.143066,8.362170742947185
57896398.74018325,-1.4716384,-0.3613291,7.6405554,7.789375143060612
57896416.82678883,-1.9382555,-1.6271775,6.882004,7.332565721205811
57896434.913394414,-3.328535,-2.0626867,4.1804104,5.727971087654865
57896453.0,-4.1229806,-2.7973096,2.7446656,5.688330096087241
57896471.74018325,-5.568297,-4.271341,3.4768956,7.831927504247557
57896489.82678883,-4.314413,-5.9487696,2.9241338,7.909018761436567
57896507.913394414,-4.469952,-7.492195,1.0887731,8.791978370288032
57896526.0,-5.336185,-6.3866715,0.031107806,8.322584388201262
57896543.74018325,-7.6644845,-5.8937325,-0.571905,9.685426204422885
57896561.82678883,-9.944926,-6.17131,-1.119881,11.757582817728183
57896579.913394414,-10.856624,-6.1545596,-2.5460541,12.73684733470002
57896598.0,-12.696771,-5.7023,-2.6968074,14.177340698069429
57896615.74018325,-13.524716,-5.939198,-3.4792883,15.175554778602887
57896633.82678883,-13.043742,-5.061001,-3.9243693,14.531125589139593
57896651.913394414,-13.697006,-5.025107,-2.5604117,14.812676388788823
57896670.0,-13.665898,-5.1208234,-1.6846073,14.69072844332795
57896688.74018325,-13.687434,-4.917426,-1.8257889,14.658118333442228
57896706.82678883,-13.943476,-5.3768644,-2.108152,15.092233055239618
57896724.913394414,-12.706342,-5.3313994,-1.6702498,13.880370347281241
57896743.0,-12.505338,-4.225876,-0.47140288,13.20847179415137
57896760.74018325,-13.079636,-2.268477,0.90451926,13.305676265554334
57896778.82678883,-12.536446,-1.4357449,1.9454343,12.76748042271491
57896796.913394414,-13.677863,-4.6159196,2.1201165,14.590597793579446
57896815.0,-13.330891,-5.6257267,1.7994668,14.580793411926395
57896832.74018325,-12.940847,-7.0973654,2.8595252,15.03379529819271
57896850.82678883,-13.244746,-8.346463,2.677664,15.882588759763975
57896868.913394414,-11.883182,-8.583362,1.8545038,14.77576739165795
57896887.0,-11.110272,-8.956655,1.2706342,14.32739766926355
57896904.74018325,-11.08395,-9.317985,1.9071478,14.605341652757385
57896922.82678883,-9.746315,-9.329948,2.1775463,13.666758710483355
57896940.913394414,-8.686256,-9.480701,1.6558924,12.964440380877022
57896959.0,-8.071279,-9.655384,2.3857293,12.808734878050036
57896977.74018325,-7.5879116,-10.349327,3.491253,13.299391689560563
57896995.82678883,-7.961205,-9.609919,3.6778998,13.009929868274696
57897013.913394414,-9.39695,-8.583362,3.8382246,13.293183990511421
57897032.0,-10.0932865,-7.523303,4.0488005,13.223740238287029
57897049.74018325,-11.914289,-6.5422106,5.022714,14.490633451856732
57897067.82678883,-10.947555,-5.080144,6.819788,13.862407146801921
57897085.913394414,-10.394793,-4.9963923,6.4680305,13.223126562098638
57897104.0,-9.112194,-5.6400843,5.90809,12.237162982196589
57897122.74018325,-8.822652,-6.8030376,6.424958,12.860816233889734
57897140.82678883,-8.305784,-9.428058,6.642713,14.212669049351321
57897158.913394414,-8.580969,-9.183981,6.219168,14.023429915664211
57897177.0,-10.650834,-8.217246,7.374943,15.341224885038384
57897195.74018325,-11.454851,-6.8365383,6.7791085,14.96356172220839
57897213.82678883,-11.773108,-5.410365,6.013378,14.284216337754515
57897231.913394414,-11.612783,-4.7403507,5.230897,13.590067593234718
57897250.0,-11.170095,-4.8958898,4.57524,13.02588117174301
57897267.74018325,-9.82528,-4.788209,4.924605,11.988111065222327
57897285.82678883,-8.758043,-4.082301,4.587205,10.696305360098645
57897303.913394414,-8.071279,-3.328535,3.7281508,9.49335548315803
57897322.0,-8.624041,-2.711165,3.4266443,9.667801714227929
57897339.74018325,-7.6142335,-2.41923,2.7279153,8.442200392634396
57897357.82678883,-6.9609694,-2.0220072,2.1392598,7.557780136818234
57897375.913394414,-6.1425953,-1.5506045,1.61282,6.53735724030761
57897394.0,-5.9822702,-1.74443,1.3376356,6.3733713032503765
57897411.74018325,-5.185432,-1.5841051,1.3711363,5.592683501472947
57897429.82678883,-5.056215,-0.9547703,0.39243692,5.160513849236932
57897447.913394414,-4.91264,-1.1055236,1.0768087,5.149342790701804
57897466.0,-5.5850477,-1.3065279,1.7635733,6.000830254991937
57897484.74018325,-5.8961253,-2.108152,1.3496002,6.4054679070497365
57897502.82678883,-5.4749737,-1.8377534,0.9763065,5.85711951020683
57897520.913394414,-5.96552,-2.057901,1.7994668,6.5620474061456795
57897539.0,-6.5278535,-2.8188457,2.7350938,7.618365998865451
57897556.74018325,-6.5278535,-2.28762,1.9669704,7.191317621711504
57897574.82678883,-7.7506294,-2.4814458,2.9002047,8.639503264446637
57897592.913394414,-8.975799,-3.15146,3.175389,10.028946261762599
57897611.0,-10.227289,-3.4960387,4.314413,11.637606558738257
57897628.74018325,-11.390243,-3.6132913,5.4773664,13.145153186538133
57897646.82678883,-12.629769,-4.2545905,6.152167,14.678615878615403
57897664.913394414,-13.89801,-5.549154,6.9131117,16.484505010842543
57897683.0,-12.995884,-6.877218,6.9131117,16.247468779402436
57897700.74018325,-12.356977,-7.599876,6.78868,16.016840260685157
57897718.82678883,-11.66782,-8.674292,7.453909,16.3383635849477
57897736.913394414,-9.45438,-9.698457,7.468266,15.466750350736415
57897755.0,-8.949476,-11.131808,8.480466,16.611097904732127
57897773.74018325,-8.078458,-9.758279,5.3194346,13.739791743810462
57897791.82678883,-9.014085,-8.89444,5.336185,13.741894398337152
57897809.913394414,-8.207675,-6.6833925,4.790602,11.618241335808326
57897828.0,-7.9277043,-4.527382,4.1014442,10.008372883135207
57897846.74018325,-7.7769513,-3.1036017,3.0150642,8.899658822951373
57897864.82678883,-8.540289,-2.5293038,2.0937946,9.149748069930919
57897882.913394414,-7.683628,-2.68245,1.691786,8.312389374582978
57897901.0,-7.3294773,-2.8595252,2.524518,8.262645641256457
57897918.74018325,-7.5089455,-2.6992004,3.0294216,8.535065351353614
57897936.82678883,-6.764751,-2.7709875,3.3381069,8.036366435957538
57897954.913394414,-7.343835,-2.763809,3.0150642,8.406019558972465
57897973.0,-7.0519004,-3.0366004,2.7422726,8.15293200348875
57897990.74018325,-7.683628,-3.2830698,2.9313123,8.85490137461662
57898008.82678883,-7.7458434,-3.4218585,2.5388756,8.84042390859291
57898026.913394414,-7.523303,-3.75208,2.2732627,8.708956060253163
57898045.0,-7.753022,-3.7903664,1.952613,8.848102910031164
57898063.74018325,-7.6931996,-4.008121,1.3472073,8.778685638821704
57898081.82678883,-7.004042,-4.347914,0.9786994,8.301735541723813
57898099.913394414,-7.961205,-4.405344,1.9382555,9.302939062126617
57898118.0,-7.4371586,-3.6300416,1.9430413,8.500819934146953
57898135.74018325,-6.819788,-2.8690968,1.7013576,7.5918273489188355
57898153.82678883,-6.9226832,-2.7207365,1.7252867,7.635611566023469
57898171.913394414,-7.779344,-3.0796728,1.9573988,8.59267057949025
57898190.0,-8.947083,-4.264162,2.5197322,10.226554753720816
57898207.74018325,-10.591011,-5.3266134,3.9411197,12.492987985462431
57898225.82678883,-11.110272,-6.7360363,4.6230984,13.790771108425528
57898243.913394414,-9.763065,-7.4898024,5.601798,13.5201597260563
57898262.0,-10.784837,-6.1282377,5.3266134,13.499659874875732
57898279.74018325,-13.761615,-6.0492716,5.7884445,16.10843952803535
57898297.82678883,-10.098072,-5.5898333,5.080144,12.610517733214163
57898315.913394414,-6.968148,-4.757101,4.790602,9.702317454943895
57898334.0,-7.8989897,-4.606348,5.393615,10.616193430134695
57898352.74018325,-9.669742,-3.936334,3.6826856,11.07071853741063
57898370.82678883,-11.47878,-3.4768956,4.0535865,12.660282651452993
57898388.913394414,-11.016949,-3.9411197,3.7927594,12.300024944064848
57898407.0,-10.942769,-4.5417395,4.139731,12.550257520289465
57898424.74018325,-10.9786625,-4.790602,4.6422415,12.84645102569704
57898442.82678883,-9.60274,-4.4890957,3.6037195,11.19604349518341
57898460.913394414,-9.380199,-3.8597608,3.4242516,10.70567072783953
57898479.0,-9.274912,-3.2376046,2.4599094,10.12705437972432
57898497.74018325,-9.652991,-2.3976939,1.9717562,10.139871488160816
57898515.82678883,-9.779816,-1.5673548,2.005257,10.10556567931692
57898533.913394414,-9.341913,-0.90451926,1.6199988,9.524383954003607
57898552.0,-9.420879,-0.6484781,2.010043,9.654727227667781
57898570.74018325,-8.77958,-0.43072346,1.742037,8.961095947748989
57898588.82678883,-8.674292,-0.7322299,1.9047549,8.911093847378783
57898606.913394414,-8.425429,-0.92366254,2.2421548,8.767454845563979
57898625.0,-7.896597,-0.9547703,2.4096584,8.311094038143333
57898642.74018325,-7.547232,-1.1294526,2.7470584,8.11065372768936
57898660.82678883,-7.135652,-1.4166015,2.4288018,7.669639330411143
57898678.913394414,-7.24094,-1.978935,2.2708697,7.842464218101546
57898697.0,-7.8439527,-2.471874,2.8068812,8.690013642257803
57898714.74018325,-8.126316,-2.5101607,3.5367181,9.211204774107895
57898732.82678883,-7.6261983,-2.526911,3.3213565,8.69342215200298
57898750.913394414,-7.760201,-2.969599,3.6755068,9.08562535096227
57898769.0,-8.403893,-3.2734983,3.2304258,9.580023983522043
57898786.74018325,-12.32587,-2.5125535,4.182803,13.256539415853267
57898804.82678883,-14.051156,-1.4620669,5.1423593,15.033844608971723
57898822.913394414,-10.18661,-2.3761578,5.3385777,11.743660461778436
57898841.0,-9.315591,-4.993999,5.333792,11.839324253965932
57898859.74018325,-9.875532,-6.4369226,3.6898644,12.352133586219107
57898877.82678883,-10.358899,-6.968148,1.9358627,12.633662946087975
57898895.913394414,-9.858782,-7.9492407,1.5482116,12.758642928949577
57898914.0,-9.954497,-8.126316,0.42354473,12.857231910219857
57898931.74018325,-9.492666,-7.0231853,-0.069394335,11.808499274650535
57898949.82678883,-8.712579,-6.2072034,0.09810923,10.698038712830673
57898967.913394414,-8.176567,-5.6927285,0.067001425,9.963327499944649
57898986.0,-8.219639,-5.206968,-1.0241647,9.783858869386409
57899003.74018325,-7.9492407,-4.613527,-0.8183746,9.227393785473266
57899021.82678883,-7.6261983,-4.4340587,-0.21057591,8.824064782164788
57899039.913394414,-7.6070547,-4.4292727,0.30389932,8.80784267891144
57899058.0,-7.8511314,-4.347914,0.4091873,8.98398879440214
57899075.74018325,-8.1119585,-4.3790216,0.58626246,9.237066880292362
57899093.82678883,-8.676684,-4.508239,0.84708947,9.814612813919961
57899111.913394414,-8.703007,-4.70685,1.0696299,9.951928249717387
57899130.0,-8.786758,-4.924605,1.2754201,10.153105287943832
57899148.74018325,-8.774794,-5.0442505,1.3615648,10.212508582801059
57899166.82678883,-9.045193,-5.3002915,1.588891,10.603451372176053
57899184.913394414,-9.1983385,-5.42233,1.61282,10.798716689583177
57899203.0,-8.588147,-5.254826,1.0457008,10.122398695319486
57899221.74018325,-9.26534,-4.886318,1.2395264,10.547940775763816
57899239.82678883,-9.140909,-4.23784,1.4716384,10.182397791887507
57899257.913394414,-9.05955,-3.649185,1.3926725,9.865674536441047
57899276.0,-8.784366,-3.3333209,1.3208853,9.487931925350692
57899293.74018325,-8.868117,-3.0868514,1.2610626,9.474303645782612
57899311.82678883,-8.569004,-2.9049904,0.98827106,9.10183929017326
57899329.913394414,-8.461323,-2.706379,1.2108115,8.965742506368464
57899348.0,-8.391929,-2.450338,1.4213874,8.857142360612915
57899365.74018325,-8.277069,-2.3211207,1.5003533,8.726312655386028
57899383.82678883,-8.131102,-2.5197322,1.5506045,8.652643781500606
57899401.913394414,-8.358428,-2.998314,1.6606783,9.03388387626667
57899420.0,-8.214853,-3.5989337,1.5745336,9.10578330766407
57899438.74018325,-8.226818,-3.8669395,2.0172215,9.311441246222117
57899456.82678883,-8.231604,-4.168446,2.0148287,9.444298870645492
57899474.913394414,-8.308177,-4.4220943,1.8736471,9.596419984387923
57899493.0,-8.368,-4.431666,1.8257889,9.643474096139794
57899510.74018325,-8.714972,-4.6398487,1.8377534,10.042722264350799
57899528.82678883,-8.176567,-4.618313,1.6630712,9.536816486004511
57899546.913394414,-7.9827414,-4.7451367,1.225169,9.367044445262435
57899565.0,-7.8008804,-4.936569,0.97152066,9.282634372831454
57899582.74018325,-8.406286,-5.001178,1.3256711,9.870908244272925
57899600.82678883,-8.341678,-4.850425,1.6367491,9.787193783340545
57899618.913394414,-7.9635983,-5.1758604,1.6367491,9.637809729414764
57899637.0,-8.095208,-5.5324035,2.0363648,10.014322875200063
57899654.74018325,-8.226818,-5.7669086,1.7516087,10.198328404390281
57899672.82678883,-8.435001,-5.8482676,1.952613,10.448166026579964
57899690.913394414,-8.48286,-5.6927285,1.1246668,10.277691713869146
57899709.0,-8.595325,-5.518046,0.7322299,10.24034199332205
57899727.74018325,-8.686256,-5.1399665,1.0863802,10.151380243967335
57899745.82678883,-8.370393,-4.924605,1.0313433,9.766211260408454
57899763.913394414,-8.032992,-4.5417395,1.1677392,9.30161131187177
57899782.0,-8.171782,-4.268948,1.225169,9.300697670647564
57899800.74018325,-7.836774,-4.5991693,0.7106937,9.114410047411637
57899818.82678883,-8.049743,-4.761887,0.7059079,9.379351583670397
57899836.913394414,-8.107173,-4.948534,0.8231604,9.533720986331263
57899855.0,-8.480466,-5.017928,1.5936768,9.981869100183504
57899872.74018325,-9.56206,-4.9317837,2.3785505,11.018756027258066
57899890.82678883,-10.937983,-4.8097453,3.1299238,12.351904507118224
57899908.913394414,-12.849916,-5.441473,4.166053,14.563171605649437
57899927.0,-11.744393,-6.637927,4.477131,14.213991128002684
57899945.74018325,-9.80853,-7.336656,4.4603806,13.035673251508427
57899963.82678883,-7.903775,-7.1691527,4.395772,11.540763456657722
57899981.913394414,-7.3390493,-6.345992,4.063158,10.518674442383816
57900000.0,-6.925076,-5.4534373,3.1418884,9.35778385670784
57900017.74018325,-7.0782223,-4.5967765,2.3043704,8.7488118084438
57900035.82678883,-7.815238,-4.242626,2.3235137,9.191111809058123
57900053.913394414,-8.420644,-3.852582,2.833203,9.683835638871045
57900072.0,-8.612076,-3.6587565,3.2591407,9.908397966294286
57900089.74018325,-9.337128,-3.4577522,4.1732316,10.796011835498671
57900107.82678883,-8.490038,-3.543897,3.8980472,9.991732740695221
57900125.913394414,-8.798723,-3.9482985,3.7257578,10.338658455529524
57900144.0,-8.877689,-4.2856984,4.245019,10.733161652879572
57900161.74018325,-8.157424,-4.381415,4.7714586,10.41667801602387
57900179.82678883,-7.7195215,-4.5225964,5.1519313,10.324111899150207
57900197.913394414,-7.209832,-4.532168,5.1136446,9.93335720406536
57900216.0,-6.951398,-4.4843097,4.8528175,9.59066240299513
57900234.74018325,-6.927469,-4.070337,4.8049593,9.361896384503863
57900252.82678883,-6.843717,-3.7449012,4.7714586,9.144810798773499
57900270.913394414,-6.7862873,-3.4864671,4.6159196,8.917166697510362
57900289.0,-6.8891826,-3.35725,4.326378,8.80054038440406
57900306.74018325,-6.898754,-3.4577522,3.799938,8.601650180806287
57900324.82678883,-6.968148,-3.6850784,3.4218585,8.593253455942797
57900342.913394414,-7.0136137,-3.7401154,3.5391111,8.700836035478892
57900361.0,-6.893968,-3.8669395,3.3644288,8.590657543631552
57900378.74018325,-6.9896846,-3.9506912,3.5319324,8.771442198601342
57900396.82678883,-7.1476164,-4.314413,3.4290373,9.02556793453516
57900414.913394414,-7.2481184,-4.635063,3.5008245,9.28842298424161
57900433.0,-7.1284733,-4.843246,3.2208543,9.200329658613184
57900451.74018325,-7.0901866,-5.262005,2.995921,9.323893246980338
57900469.82678883,-6.944219,-5.534796,3.0126712,9.377224111691394
57900487.913394414,-7.1021514,-5.666406,2.969599,9.558620699983809
57900506.0,-7.2959766,-5.546761,3.0653152,9.664056571348267
57900524.74018325,-7.133259,-5.5802617,2.761416,9.468269267750252
57900542.82678883,-7.29837,-5.6951213,2.8068812,9.673633926789204
57900560.913394414,-7.2457256,-5.5611186,3.0940301,9.643630115960864
57900579.0,-7.4826236,-5.309863,3.4984317,9.819537941146256
57900596.74018325,-7.3581924,-5.135181,3.6659353,9.69289228878382
57900614.82678883,-8.0306,-5.080144,4.108623,10.35273791694086
57900632.913394414,-8.901618,-4.9868207,3.986585,10.954453143543839
57900651.0,-10.07175,-5.3194346,4.6518135,12.303491429873043
57900668.74018325,-10.344542,-5.809981,5.2739697,12.983843221736894
57900686.82678883,-10.461794,-6.118666,6.010985,13.528456969965827
57900704.913394414,-10.267968,-6.590069,6.2287397,13.69880923745349
57900723.0,-10.87816,-6.695357,6.4177794,14.29510625249471
57900740.74018325,-11.098308,-6.738429,6.152167,14.367603302109716
57900758.82678883,-9.834852,-6.613998,5.3816504,13.016583439356433
57900776.913394414,-8.119137,-6.355564,4.0799084,11.088698387784545
57900795.0,-7.580733,-5.5012956,3.0078855,9.837639009283611
57900813.74018325,-7.729093,-4.2904844,1.9167194,9.045493256181706
57900831.82678883,-8.837009,-3.1921394,1.3424214,9.491289545172002
57900849.913394414,-9.655384,-2.3618002,2.0674727,10.152782068843068
57900868.0,-9.061943,-1.746823,2.864311,9.66304708843432
57900885.74018325,-8.808294,-1.5458187,3.6515777,9.659690385454546
57900903.82678883,-8.121531,-1.3304569,3.9650488,9.135151522175208
57900921.913394414,-8.0641,-1.170132,4.1301594,9.135487637604921
57900940.0,-7.7937016,-1.0959519,3.7544727,8.720032135950042
57900957.74018325,-7.733879,-1.1222739,3.6228628,8.613798114704457
57900975.82678883,-7.575947,-1.0528796,3.2232473,8.300171778696058
57900993.913394414,-7.63577,-1.4453164,2.833203,8.2716964540666
57901012.0,-7.731486,-2.1033661,3.5008245,8.743900554021955
57901029.74018325,-7.5687685,-2.443159,3.6802926,8.763551570424402
57901047.82678883,-7.7984877,-2.7542372,3.6611493,9.044680600098912
57901065.913394414,-7.9516335,-3.0629225,3.6587565,9.273428097829882
57901084.0,-7.822417,-3.2878556,3.5391111,9.193775587128695
57901102.74018325,-7.887025,-3.3022132,3.3357139,9.178058759429058
57901120.82678883,-7.997099,-3.4457877,3.2328188,9.288603914631398
57901138.913394414,-8.23639,-3.5462897,3.2088897,9.52424611059543
57901157.0,-7.9444547,-3.512789,2.9025974,9.158554400414939
57901175.74018325,-8.174174,-3.7185793,2.7901309,9.403711130814223
57901193.82678883,-7.9827414,-3.9698346,2.500589,9.259411015693823
57901211.913394414,-7.8559175,-4.2115183,2.2182257,9.185469580494056
57901230.0,-8.088029,-4.3622713,2.2014754,9.44945066850184
57901247.74018325,-7.9803486,-4.44363,2.0914016,9.370473414236045
57901265.82678883,-8.140674,-5.0274997,1.7109293,9.719753365048652
57901283.913394414,-7.8559175,-5.829124,1.0337363,9.836805228940946
57901302.0,-7.791309,-6.269419,0.8351249,10.035314849552156
57901320.74018325,-7.602269,-6.692964,0.67240715,10.150979875313917
57901338.82678883,-8.207675,-7.6884136,0.95237744,11.286481089272728
57901356.913394414,-8.035385,-8.624041,0.43550926,11.795387385900124
57901375.0,-8.389536,-8.676684,0.56711924,12.082664596997228
57901392.74018325,-9.0069065,-8.375178,1.4812101,12.38797621049412
57901410.82678883,-9.889889,-8.245961,1.6319634,12.979564005958812
57901428.913394414,-10.631691,-8.04735,2.0985804,13.498027086846625
57901447.0,-10.155502,-7.609448,2.3546216,12.906671244588768
57901464.74018325,-10.0334635,-6.8365383,2.8188457,12.464130006286345
57901482.82678883,-9.806137,-5.754944,2.6704855,11.679520371642633
57901500.913394414,-9.578811,-5.0203214,2.3809435,11.073668727355502
57901519.0,-9.071514,-4.5848117,2.1942968,10.398451953206456
57901536.74018325,-8.750865,-4.395772,2.5197322,10.111849488789172
57901554.82678883,-9.387379,-4.1540885,3.3428926,10.796030135684505
57901572.913394414,-9.729565,-3.854975,4.0607653,11.225643953089465
57901591.0,-9.227054,-3.6587565,4.0990515,10.739052464945896
57901609.74018325,-7.8248096,-4.1038375,3.8932614,9.655392888504764
57901627.82678883,-6.855682,-5.111252,4.0727296,9.471662952583571
57901645.913394414,-6.870039,-5.910483,4.6542063,10.187879143264789
57901664.0,-7.37255,-6.1497736,4.919819,10.78790191958186
57901681.74018325,-8.176567,-5.857839,5.156717,11.303196710377955
57901699.82678883,-8.097601,-5.515653,4.9533195,10.97856748581937
57901717.913394414,-7.4275866,-5.666406,5.230897,10.706982912190742
57901736.0,-7.0662575,-5.7453723,5.958341,10.883157877849358
57901754.74018325,-6.3053126,-5.520439,6.3053126,10.487572680089444
57901772.82678883,-5.8171597,-5.0346785,6.271812,9.925873278307071
57901790.913394414,-5.3816504,-4.5991693,6.1067014,9.349134787061562
57901809.0,-4.78103,-4.424487,5.4749737,8.509387174747703
57901826.74018325,-4.7044573,-4.4125223,4.8528175,8.071685649467948
57901844.82678883,-4.529775,-4.5537043,4.063158,7.6002853456582455
57901862.913394414,-4.4220943,-4.816924,3.3859649,7.363588332049837
57901881.0,-4.22109,-5.003571,2.677664,7.072708677517901
57901899.74018325,-3.8693323,-5.6927285,2.2230117,7.23330292749256
57901917.82678883,-3.799938,-6.4225655,1.5745336,7.626796998948065
57901935.913394414,-3.2495692,-7.365371,1.4213874,8.174884225119545
57901954.0,-2.895419,-8.166995,1.4405307,8.783984700193214
57901971.74018325,-2.6178415,-8.545074,2.215833,9.207676127475773
57901989.82678883,-2.3115492,-8.726935,3.2998202,9.612048041420396
57902007.913394414,-2.318728,-8.537896,3.854975,9.650544020697746
57902026.0,-2.4838386,-8.226818,3.95787,9.461222095103462
57902043.74018325,-3.3117847,-8.174174,4.469952,9.887644277770823
57902061.82678883,-3.8717253,-8.279462,5.647263,10.743897207218295
57902079.913394414,-4.2904844,-8.095208,6.5302463,11.250989542638951
57902098.0,-6.848503,-7.154795,6.456066,11.822600095976773
57902115.74018325,-6.1282377,-7.597483,7.4826236,12.299052857121449
57902133.82678883,-7.293584,-7.449123,7.4132295,12.792254400763582
57902151.913394414,-8.372786,-7.8200235,7.968384,13.95533792187793
57902170.0,-7.8248096,-8.104779,8.920761,14.369936142315114
57902188.74018325,-6.8532887,-8.001884,9.662563,14.295553059744583
57902206.82678883,-6.147381,-8.267497,10.397185,14.637050786561991
57902224.913394414,-6.5541754,-7.896597,10.423508,14.627473410689836
57902243.0,-7.681235,-7.647734,9.56206,14.454141202561328
57902260.74018325,-9.392164,-7.674056,8.533111,14.829627892578863
57902278.82678883,-9.466345,-7.2146177,7.5663753,14.10363185128669
57902296.913394414,-8.521146,-6.611605,6.6283555,12.659318562376145
57902315.0,-7.6142335,-6.1808815,6.0851655,11.54162410893522
57902332.74018325,-6.408208,-5.5300107,4.7977805,9.729586108337742
57902350.82678883,-5.8554463,-5.204575,4.5895977,9.079551715291563
57902368.913394414,-5.0466433,-4.711636,3.7042217,7.835137573564474
57902387.0,-4.481917,-3.7927594,2.7973096,6.503656268548448
57902405.74018325,-4.0296574,-3.3668218,2.2852273,5.726769735810519
57902423.82678883,-3.8884757,-3.2160685,2.3306925,5.558369130935709
57902441.913394414,-3.4768956,-3.1825678,2.4024796,5.290505556495746
57902460.0,-3.1873536,-3.4960387,2.785345,5.489959592962014
57902478.74018325,-3.0030997,-3.907619,3.2352118,5.895310801659258
57902496.82678883,-2.7733805,-4.1349454,3.5534685,6.116906999395501
57902514.913394414,-2.677664,-4.1469097,3.6539707,6.141518251483796
57902533.0,-2.4096584,-4.166053,3.6061125,6.013858874812063
57902550.74018325,-2.2110472,-4.4460235,3.955477,6.348358290196694
57902568.82678883,-1.7731448,-4.83846,4.5728474,6.88953343827097
57902586.913394414,-1.301742,-5.3002915,5.0897155,7.46276263125637
57902605.0,-1.3304569,-5.798016,5.465402,8.078225307616618
57902622.74018325,-2.502982,-6.4106007,5.733408,8.95727009314939
57902640.82678883,-3.670721,-7.0231853,6.0684147,9.98123145654649
57902658.913394414,-4.6948857,-7.5137315,6.4680305,10.969664139757743
57902677.0,-5.005964,-7.6381626,6.9633627,11.484320770732854
57902695.74018325,-5.3385777,-7.3390493,7.8798466,12.018903399491126
57902713.82678883,-5.2572193,-6.898754,8.540289,12.17241544330169
57902731.913394414,-5.343364,-6.6044264,9.114587,12.459762561545142
57902750.0,-5.15911,-6.6833925,8.971012,12.319221063253156
57902767.74018325,-5.7621226,-7.2648687,8.949476,12.886950560945225
57902785.82678883,-6.7862873,-7.310334,9.021263,13.449084155616926
57902803.913394414,-8.875296,-7.410836,9.4137,14.910034104471793
57902822.0,-9.947319,-8.001884,10.107644,16.28323585986376
57902839.74018325,-8.731722,-7.5879116,10.342149,15.51706858504207
57902857.82678883,-8.210068,-7.6405554,10.722621,15.516375365875053
57902875.913394414,-7.348621,-7.525696,10.500081,14.8623696593988
57902894.0,-6.7049284,-6.848503,9.758279,13.67779467721228
57902911.74018325,-6.0827723,-5.946377,8.305784,11.888884141685976
57902929.82678883,-4.9604983,-4.7475295,6.817395,9.675869693402147
57902947.913394414,-4.836067,-4.2665553,5.6257267,8.55802775524478
57902966.0,-4.924605,-4.321592,5.0633936,8.280449659831884
57902984.74018325,-4.22109,-4.094266,4.000942,7.112534833251786
57903002.82678883,-4.1732316,-4.158874,3.6252558,6.917700091110355
57903020.913394414,-3.874118,-4.084694,3.1490672,6.450592188448735
57903039.0,-3.7329366,-3.9722273,2.7901309,6.1235803107022
57903057.74018325,-3.7161863,-4.0416217,2.7518444,6.141448866841597
57903075.82678883,-3.2208543,-4.058372,3.0007067,5.987363895040737
57903093.913394414,-3.0605295,-4.249805,3.4481807,6.270377460587819
57903112.0,-3.228033,-4.398165,3.874118,6.691251205435198
57903129.74018325,-3.876511,-4.711636,4.1995535,7.406963003078877
57903147.82678883,-4.288091,-5.0442505,4.7236004,8.132932329111771
57903165.913394414,-4.8528175,-5.5802617,5.7645154,9.376502339658979
57903184.0,-4.7786374,-6.3723145,6.9920774,10.598627923235147
57903201.74018325,-4.457988,-6.5757113,8.016242,11.28599893282184
57903219.82678883,-5.278755,-6.8293595,8.915976,12.409674998276195
57903237.913394414,-5.8961253,-7.291191,9.794173,13.559188194936675
57903256.0,-4.6948857,-7.3007627,9.909033,13.17315538255223
57903274.74018325,-4.4675593,-7.523303,9.995177,13.283927784738761
57903292.82678883,-4.6733494,-7.764987,10.119608,13.584612022369772
57903310.913394414,-4.8456388,-7.9205256,10.18661,13.783394518492925
57903329.0,-4.321592,-7.65252,9.152873,12.689062373516531
57903346.74018325,-3.8836899,-6.9131117,7.8822393,11.180512376385234
57903364.82678883,-3.6252558,-6.3914576,6.7719297,9.9926093554073
57903382.913394414,-3.644399,-6.6259627,6.2119894,9.786410888507831
57903401.0,-3.275891,-7.2337613,5.9296265,9.910561781188841
57903418.74018325,-2.5963054,-7.6931996,5.6640134,9.89985705002294
57903436.82678883,-2.2421548,-8.035385,5.472581,9.97716457952604
57903454.913394414,-1.7731448,-8.0617075,5.340971,9.831639818472008
57903473.0,-1.562569,-7.815238,5.654442,9.77201520709874
57903490.74018325,-1.5960697,-7.4778376,5.8506603,9.627861632015073
57903508.82678883,-1.7875023,-7.0710435,5.6855497,9.247718423620372
57903526.913394414,-1.6104271,-6.767144,5.5850477,8.920788707980124
57903545.0,-1.3496002,-6.594855,6.140202,9.111290455894217
57903563.74018325,-0.96434194,-6.50871,6.7767158,9.445482426817204
57903581.82678883,-0.39243692,-6.43453,7.585519,9.954761752871843
57903599.913394414,-0.34218585,-5.9487696,8.205282,10.140591876678027
57903618.0,-0.34218585,-5.417544,8.468502,10.05894628039539
57903635.74018325,-0.4737958,-5.0107493,8.595325,9.960507158933883
57903653.82678883,-0.7968384,-4.773852,8.382357,9.679283198102407
57903671.913394414,-1.040915,-4.9269977,8.724543,10.073552547730086
57903690.0,-1.5266753,-5.415151,9.43763,10.987422711506602
57903708.74018325,-1.8568966,-6.0038066,9.961677,11.778317678073728
57903726.82678883,-2.445552,-6.5182815,10.538367,12.630356183601286
57903744.913394414,-3.1682103,-7.0710435,10.914054,13.384834231279607
57903763.0,-4.039229,-7.410836,11.249061,14.06332942496399
57903780.74018325,-4.225876,-7.7171288,11.351956,14.362416576227742
57903798.82678883,-4.4101295,-7.453909,11.277776,14.2196425093329
57903816.913394414,-4.4675593,-6.6738205,10.691513,13.37188903612372
57903835.0,-4.556097,-5.6855497,9.846817,12.249216313547088
57903853.74018325,-4.4914885,-4.536954,8.621648,10.728011688083317
57903871.82678883,-4.139731,-3.723365,7.7195215,9.517974147083414
57903889.913394414,-3.878904,-3.4792883,7.288798,8.959794618211786
57903908.0,-3.1275308,-3.8717253,7.2505116,8.794408687645992
57903925.74018325,-2.555626,-4.5225964,7.530482,9.148402133787789
57903943.82678883,-1.5338541,-6.3794928,8.164602,10.474319195238547
57903961.913394414,-0.77530223,-6.8652534,7.9013824,10.495934528429771
57903980.0,0.598227,-7.5376606,8.277069,11.210890869823073
57903997.74018325,0.6173703,-7.9324903,8.346463,11.531218194851974
57904015.82678883,0.13878867,-7.7506294,7.7745585,10.978855963213425
57904033.913394414,0.8566611,-7.525696,7.2481184,10.483567563815658
57904052.0,0.6173703,-7.343835,5.9726987,9.486105014995816
57904070.74018325,0.021536173,-7.212225,5.888947,9.31108747817254
57904088.82678883,-0.16511066,-7.4658732,7.1141157,10.313930694042421
57904106.913394414,-1.0361292,-6.905933,7.573554,10.301659793960274
57904125.0,-0.7633377,-6.125845,7.004042,9.33623402373946
57904142.74018325,-1.2682413,-5.752551,7.6644845,9.666674798159239
57904160.82678883,-1.2155973,-6.3771,7.2217965,9.710789148837469
57904178.913394414,-1.0552725,-4.7953877,9.02605,10.275160429164478
57904197.0,-0.46901,-4.44363,10.251218,11.182722765074882
57904214.74018325,-0.46901,-5.077751,9.459166,10.746131723260095
57904232.82678883,-1.4094229,-4.343128,8.949476,10.047007236486118
57904250.913394414,-2.239762,-4.450809,9.52856,10.752659682363475
57904269.0,0.21057591,-6.4441013,8.525931,10.689353731414029
57904286.74018325,1.4166015,-6.118666,9.377807,11.286633579531465
57904304.82678883,0.83991075,-4.6015625,10.885339,11.847802861893543
57904322.913394414,0.90451926,-3.7281508,9.145695,9.917711455385087
57904341.0,-1.9047549,-0.9404129,3.5558615,4.142054883598559
57904359.74018325,-0.2632199,-2.263691,6.166524,6.574161536029748
57904377.82678883,0.80162424,-6.1856675,10.136358,11.901715731224462
57904395.913394414,1.8832186,-6.197632,8.088029,10.36211213062525
57904414.0,1.7659662,-4.3407354,7.054293,8.468982829254326
57904432.74018325,2.1440456,-5.3505425,8.0306,9.885128878228427
57904450.82678883,2.8595252,-6.0229497,9.246197,11.3993406134291
57904468.913394414,4.7451367,-5.9056973,9.990392,12.538002839949359
57904487.0,2.8690968,-6.2909555,8.164602,10.698998241384775
57904504.74018325,1.6726427,-3.7640445,5.2715764,6.689938889173839
57904522.82678883,0.2680057,-6.3723145,5.080144,8.15389981560227
57904540.913394414,-0.6532639,-6.4441013,5.104073,8.246499649974764
57904559.0,-0.34936458,-5.3194346,4.9269977,7.25904583325116
57904576.74018325,-0.055036888,-3.3668218,7.994706,8.674897239646818
57904594.82678883,0.9834852,-2.574769,10.4259,10.784065529844487
57904612.913394414,2.4670882,-4.922212,8.530717,10.153217602987352
57904631.0,2.132081,-4.0607653,7.5113387,8.800897299614556
57904649.74018325,3.1658175,-4.481917,7.803273,9.539447046381895
57904667.82678883,2.5125535,-3.5008245,7.24094,8.42614439431004
57904685.913394414,3.3859649,-4.08948,6.118666,8.101029477417546
57904704.0,3.4242516,-5.106466,6.613998,9.030308055280427
57904721.74018325,3.460145,-4.2569833,7.1835103,9.038657558935949
57904739.82678883,3.8980472,-4.108623,8.49961,10.213663646393337
57904757.913394414,3.15146,-5.8434815,11.112665,12.944856104826629
57904776.0,3.436216,-7.3557997,9.813316,12.736425736486359
57904793.74018325,3.412287,-6.125845,7.7673798,10.464314047840977
57904811.82678883,2.5149465,-5.336185,8.399107,10.263762694525642
57904829.913394414,2.8547394,-7.542446,9.243804,12.2672711348223
57904848.0,1.483603,-8.786758,9.901854,13.32122016368955
57904865.74018325,2.969599,-6.893968,9.380199,12.013885561525298
57904883.82678883,3.1442811,-7.9133472,9.28209,12.596220159701284
57904901.913394414,3.1945324,-7.1906886,8.875296,11.860940893724905
57904920.0,3.278284,-7.480231,10.198574,13.065676922053942
57904938.74018325,3.5008245,-7.130866,10.87816,13.46994384083899
57904956.82678883,3.1490672,-7.91574,9.114587,12.476027418945698
57904974.913394414,2.8810613,-6.6283555,8.671899,11.288819385344906
57904993.0,3.9722273,-7.934883,6.6666417,11.098876947814729
57905011.74018325,4.5776334,-5.5084743,6.7838945,9.865051507502955
57905029.82678883,4.8288884,-7.0949726,7.441944,11.359547960792337
57905047.913394414,4.29527,-5.6807637,6.590069,9.70306291914562
57905066.0,4.4723454,-5.017928,5.4247227,8.63765542042402
57905083.74018325,4.9150333,-5.283541,5.443866,9.039304998988909
57905101.82678883,5.491724,-4.7451367,5.912876,9.361487989910518
57905119.913394414,5.180646,-4.5728474,6.3100986,9.35774388742953
57905138.0,5.0466433,-4.276127,7.0160065,9.642521346909538
57905155.74018325,3.823867,-3.7018287,8.083243,9.678032442334635
57905173.82678883,4.292877,-3.6922572,7.760201,9.606366416522006
57905191.913394414,4.012907,-4.477131,6.501531,8.85539552621852
57905210.0,3.3428926,-3.8669395,5.90809,7.812405486141577
57905228.74018325,2.6968074,-2.5293038,6.3938503,7.385896663520231
57905246.82678883,2.6944146,-1.3663505,9.030835,9.522749840396333
57905264.913394414,3.6132913,-4.97007,8.037778,10.117477205353104
57905283.0,3.7257578,-5.43908,8.222033,10.538818201475431
57905300.74018325,3.2974274,-3.1179593,6.0612364,7.57187455993641
57905318.82678883,2.603484,-5.022714,9.128944,10.739804626676781
57905336.913394414,3.6611493,-7.4586945,8.372786,11.79574852406649
57905355.0,3.5295393,-6.109094,7.628591,10.391057588925273
57905372.74018325,3.330928,-4.7283864,7.193082,9.230013431605231
57905390.82678883,3.6611493,-5.099287,7.760201,9.981355702792106
57905408.913394414,4.42688,-5.9176617,10.418722,12.773635138179378
57905427.0,4.242626,-8.229211,10.107644,13.7070878121187
57905445.74018325,4.1038375,-6.09713,8.944691,11.576872356072137
57905463.82678883,3.7185793,-4.735565,8.808294,10.669557210589833
57905481.913394414,2.9265265,-4.611134,8.896832,10.439383782454893
57905500.0,2.1177237,-2.8595252,8.592933,9.300544907771036
57905517.74018325,1.3496002,-2.392908,8.2124605,8.659788499747803
57905535.82678883,1.3113136,-2.6513422,10.708263,11.109277892654177
57905553.913394414,0.53840435,-4.8264956,13.574967,14.417512548009357
57905572.0,0.17946811,-3.5343254,10.940375,11.498498596608911
57905589.74018325,-0.42833054,-3.2974274,9.394557,9.965650793401124
57905607.82678883,-0.3613291,-4.6972785,7.760201,9.078309511438244
57905625.913394414,-1.2155973,-4.625491,6.3364205,7.93870698159773
57905644.0,-1.3208853,-3.0940301,6.4153867,7.24395932801938
57905661.74018325,-0.10289505,-3.5510757,6.1880603,7.13532173730667
57905679.82678883,0.25604117,-2.940884,4.4125223,5.308927276784667
57905697.913394414,0.19382556,-2.3354783,2.938491,3.7585577811923025
57905716.0,-2.1177237,-1.2323477,3.050958,3.9130268643341792
57905734.74018325,-3.907619,-2.3211207,3.5080032,5.741356460309683
57905752.82678883,-3.7640445,-2.6513422,4.7977805,6.649537140708468
57905770.913394414,-4.7594943,-2.452731,4.608741,7.064642167525153
57905789.0,-2.1249025,-3.8477962,4.9963923,6.654673714521245
57905807.74018325,-2.6920216,-4.0488005,6.3172774,7.971684861572086
57905825.82678883,-2.2325833,-4.170839,6.642713,8.155118770179186
57905843.913394414,-2.3665862,-5.0921082,6.101916,8.292386570438795
57905862.0,-3.2615337,-5.017928,7.97317,9.969385303935228
57905879.74018325,-2.4048727,-5.0083566,8.638398,10.270782275093405
57905897.82678883,-1.7635733,-5.494117,9.052371,10.735032981588967
57905915.913394414,-2.7135577,-6.2383113,9.425665,11.62424552214732
57905934.0,-2.7709875,-6.4106007,8.805902,11.239131776681006
57905951.74018325,-3.749687,-6.1880603,8.090423,10.853901934020506
57905969.82678883,-4.16366,-6.034914,6.8532887,10.036125626383106
57905987.913394414,-6.556568,-7.054293,6.9418263,11.871840044737997
57906006.0,-8.109566,-7.348621,6.6163907,12.78842903585282
57906024.74018325,-9.040407,-7.78413,7.209832,13.939272436206023
57906042.82678883,-9.54531,-8.585754,8.210068,15.239203762311206
57906060.913394414,-10.552725,-8.975799,8.968619,16.503366304520632
57906079.0,-11.373492,-9.755886,9.770244,17.888300638646367
57906096.74018325,-11.337599,-10.78723,10.169859,18.66364150527924
57906114.82678883,-11.021734,-12.201438,9.973641,19.230892450208362
57906132.913394414,-9.669742,-13.18971,8.729329,18.538434265625156
57906151.0,-8.360821,-14.180373,7.4275866,18.05977156316407
57906168.74018325,-7.994706,-14.651776,7.1643667,18.163645399332175
57906186.82678883,-8.157424,-13.967404,6.831753,17.55861013485979
57906204.913394414,-7.3342633,-12.4670515,6.30292,15.778009753570922
57906223.0,-7.317513,-11.689356,6.700143,15.332284774956209
57906240.74018325,-6.31967,-9.961677,6.11388,13.287315989906652
57906258.82678883,-6.2072034,-8.829831,5.9296265,12.314859315763004
57906276.913394414,-5.7118716,-8.250747,5.3696856,11.381292838502265
57906295.0,-6.008592,-7.872668,4.9652843,11.07863382554521
57906313.74018325,-6.716893,-7.209832,5.1208234,11.105006138479192
57906331.82678883,-5.4582233,-5.565904,3.5391111,8.561354817318465
57906349.913394414,-5.472581,-4.5776334,3.1083877,7.782412507691163
57906368.0,-5.8985186,-3.8717253,3.2352118,7.762047015064086
57906386.74018325,-5.254826,-2.998314,2.8499537,6.687699097972014
57906404.82678883,-5.9176617,-3.1921394,2.916955,7.329195072905636
57906422.913394414,-5.9224477,-3.0246358,2.8308103,7.227537300938891
57906441.0,-5.9176617,-3.1706033,2.7422726,7.252000020292922
57906458.74018325,-6.1114874,-3.3692145,3.1586387,7.660214293641314
57906476.82678883,-6.271812,-3.771223,3.1921394,7.984203318309558
57906494.913394414,-6.5541754,-4.0966587,3.4146798,8.449844129614398
57906513.0,-7.370157,-4.218697,3.8645465,9.330130665383
57906530.74018325,-7.985134,-4.1277666,3.986585,9.833294568162623
57906548.82678883,-8.884868,-3.9100118,4.1301594,10.549279042805324
57906566.913394414,-9.655384,-3.802331,4.0057282,11.12339964369222
57906585.0,-10.7298,-3.776009,3.986585,12.053203390398172
57906603.74018325,-11.289741,-3.5175748,4.170839,12.539038331730112
57906621.82678883,-12.132044,-3.0342073,4.4125223,13.26134452479486
57906639.913394414,-14.900639,-2.4934103,5.056215,15.931460939245092
57906658.0,-13.488823,-1.6870002,5.283541,14.584585050621428
57906675.74018325,-11.213167,-1.8832186,4.922212,12.389907079482839
57906693.82678883,-10.01432,-2.0267932,4.9628916,11.358907903989573
57906711.913394414,-9.30602,-2.424016,5.0131426,10.84478955704493
57906730.0,-9.719993,-3.0389934,4.757101,11.240273783564774
57906747.74018325,-10.200967,-3.2830698,4.000942,11.438785422155846
57906765.82678883,-11.258633,-3.5295393,3.493646,12.305284518134862
57906783.913394414,-11.122237,-3.493646,3.1275308,12.070259614541587
57906802.0,-10.725014,-3.6587565,3.1490672,11.76133702674165
57906820.74018325,-9.301233,-3.8645465,3.5582542,10.682173370750396
57906838.82678883,-7.274441,-3.493646,3.9219763,8.972455200978086
57906856.913394414,-6.590069,-3.2328188,3.9913707,8.355307707272841
57906875.0,-6.1617384,-3.3859649,3.4768956,7.843505684792096
57906892.74018325,-5.936805,-3.4051082,3.048565,7.492273621602273
57906910.82678883,-5.728622,-3.7018287,2.5125535,7.268670499712443
57906928.913394414,-5.5850477,-4.03205,2.368979,7.284383743064082
57906947.0,-5.910483,-4.2737336,2.4599094,7.697386727537231
57906964.74018325,-5.7070856,-4.5967765,2.9815636,7.91144119219277
57906982.82678883,-5.90809,-4.785816,3.2878556,8.283692213041679
57907000.913394414,-6.140202,-5.128002,3.275891,8.644648457669577
57907019.0,-6.384279,-5.333792,3.4194658,8.994503977789694
57907036.74018325,-6.45128,-5.597012,3.3620358,9.178716777797735
57907054.82678883,-6.4967456,-5.809981,3.4457877,9.372141456729707
57907072.913394414,-6.767144,-5.802802,3.2304258,9.481687603862808
57907091.0,-7.422801,-5.932019,2.837989,9.916703366849438
57907109.74018325,-8.6551485,-6.2407045,2.5412683,10.968866522387689
57907127.82678883,-9.6912775,-6.5541754,2.4479449,11.952845225694483
57907145.913394414,-10.988234,-7.0231853,2.8188457,13.342125365821616
57907164.0,-11.452458,-7.4945884,3.3261423,14.085129467883064
57907182.74018325,-11.526638,-7.4371586,4.0751224,14.3101828849103
57907200.82678883,-11.624747,-7.193082,4.6900997,14.452411794184147
57907218.913394414,-10.447436,-6.877218,4.850425,13.415351992185855
57907237.0,-10.739371,-7.157188,4.0176926,13.516703864888058
57907254.74018325,-10.710656,-7.6931996,2.785345,13.478190487035015
57907272.82678883,-11.064807,-8.717364,2.5149465,14.30899524612428
57907290.913394414,-11.792251,-9.188767,3.0581365,15.259188100286407
57907309.0,-12.62259,-9.076301,4.0224786,16.05893372046099
57907326.74018325,-12.371335,-8.63122,5.1710744,15.946407081877735
57907344.82678883,-11.588854,-8.176567,5.9224477,15.36987871448699
57907362.913394414,-11.021734,-7.654913,6.781502,15.035460843629934
57907381.0,-10.251218,-7.367764,6.7360363,14.308934337613605
57907399.74018325,-10.054999,-6.6020336,6.4464946,13.647239470799914
57907417.82678883,-10.138752,-5.6903353,6.166524,13.160555694441861
57907435.913394414,-10.320613,-4.5919905,5.4319015,12.534232459690601
57907454.0,-10.026285,-3.515182,4.766673,11.644915924268323
57907471.74018325,-9.597955,-2.6202343,4.264162,10.824483614989008
57907489.82678883,-9.478309,-1.9454343,3.7807949,10.388333176740314
57907507.913394414,-9.138516,-1.1318455,3.3117847,9.785778804841254
57907526.0,-8.695828,-0.6173703,2.7470584,9.14028995961926
57907543.74018325,-8.291427,-0.11246668,2.1703677,8.571517158802315
57907561.82678883,-7.958812,0.11485959,2.08183,8.227387029042633
57907579.913394414,-7.16676,0.234505,1.9215052,7.423585638103196
57907598.0,-5.9726987,0.5551547,1.5721406,6.201044473964216
57907615.74018325,-5.697514,0.13878867,1.4859959,5.889746334939492
57907633.82678883,-5.8363028,-0.071787246,1.6319634,6.060601316776717
57907651.913394414,-5.9559484,-0.031107806,1.5027462,6.142681432458559
57907670.0,-6.3435993,-0.34457877,1.3759222,6.500242188422524
57907688.74018325,-7.0183992,-0.5240469,1.4022441,7.176269295389148
57907706.82678883,-7.681235,-0.86862564,1.3783151,7.852110171322001
57907724.913394414,-8.566611,-1.4692456,1.354386,8.796582751013963
57907743.0,-10.512045,-2.526911,1.7372513,10.9501785996073
57907761.74018325,-12.897775,-3.3955367,2.5173392,13.572739814773158
57907779.82678883,-11.990863,-3.2687125,3.2711053,12.851669415920771
57907797.913394414,-12.060257,-3.3165705,4.2856984,13.221824744084374
57907816.0,-13.407464,-5.125609,6.190453,15.63181585348887
57907833.74018325,-14.194731,-6.326849,6.353171,16.789347461602045
57907851.82678883,-14.323948,-8.451752,5.0083566,17.369261182012654
57907869.913394414,-14.895853,-12.081793,3.3548572,19.470778760102274
57907888.0,-13.950654,-14.280875,2.7757733,20.156117066695508
57907905.74018325,-12.184688,-14.702027,3.5032175,19.41362285660199
57907923.82678883,-9.959284,-13.790329,5.049036,17.744105394473767
57907941.913394414,-8.954262,-12.459872,6.5924616,16.699933178563995
57907960.0,-8.260319,-10.823123,6.5924616,15.127240706829669
57907978.74018325,-7.8272023,-8.793938,5.4079723,12.955485548235412
57907996.82678883,-7.4036574,-6.9585767,3.7831876,10.841975880952301
57908014.913394414,-7.3893003,-5.7023,2.7901309,9.741807565986658
57908033.0,-7.2529044,-4.479524,2.1153307,8.783244359146446
57908050.74018325,-6.6498914,-3.275891,1.7324655,7.612749449730051
57908068.82678883,-6.58289,-2.5508401,1.5817122,7.234848958443904
57908086.913394414,-6.5469966,-2.2541194,1.952613,7.19422798343484
57908105.0,-6.063629,-2.368979,2.4288018,6.948290173543794
57908122.74018325,-5.6568346,-2.4072654,2.998314,6.839926259864964
57908140.82678883,-5.388829,-2.2469406,2.9360983,6.535204149713477
57908158.913394414,-4.7953877,-2.2277975,2.943277,6.051586931792895
57908177.0,-4.4603806,-2.2541194,2.9360983,5.7962679884194115
57908195.74018325,-4.6494203,-2.4694812,3.0772798,6.097958469085663
57908213.82678883,-5.128002,-2.7135577,3.0533507,6.556123122732197
57908231.913394414,-6.381886,-3.15146,3.0054924,7.726134454890994
57908250.0,-7.84156,-3.6037195,3.4505734,9.294262437497007
57908267.74018325,-8.889653,-4.1540885,3.8406174,10.537206638356485
57908285.82678883,-9.028442,-4.307235,4.2785196,10.879833098911636
57908303.913394414,-10.514439,-3.9817991,4.687707,12.181245768612126
57908322.0,-12.124866,-3.9985495,4.5178103,13.542945895509307
57908339.74018325,-12.388085,-4.4292727,4.4890957,13.900902374376592
57908357.82678883,-12.830773,-5.099287,4.8264956,14.62622724637893
57908375.913394414,-12.924097,-5.4701877,5.4055796,15.03913320476205
57908394.0,-12.512516,-5.128002,5.9559484,14.776088200390607
57908412.74018325,-11.201202,-4.1349454,5.991842,13.359149308947378
57908430.82678883,-10.717835,-3.409894,5.443866,12.495400802071815
57908448.913394414,-10.224896,-3.1945324,4.405344,11.582771310174511
57908467.0,-9.507024,-3.1107805,3.1586387,10.489874121880298
57908485.74018325,-8.418251,-2.8188457,2.21344,9.149434824786145
57908503.82678883,-7.8248096,-2.605877,1.8903974,8.461196283345986
57908521.913394414,-7.5711613,-2.837989,2.0985804,8.353484583693373
57908540.0,-6.929862,-3.0078855,2.2852273,7.8925677908282506
57908557.74018325,-6.84611,-2.9193478,2.3785505,7.813406183638164
57908575.82678883,-6.795859,-2.730308,2.474267,7.7304772498231955
57908593.913394414,-7.1787243,-2.4288018,2.500589,7.980357517430828
57908612.0,-7.741058,-2.112938,2.785345,8.493917395420855
57908629.74018325,-8.1119585,-1.926291,3.3548572,8.987187243781843
57908647.82678883,-7.7673798,-1.5482116,3.8597608,8.810613006428056
57908665.913394414,-7.6668777,-1.4453164,4.0559793,8.793231558698697
57908684.0,-7.628591,-1.5218896,3.902833,8.703083018434224
57908701.74018325,-8.377571,-2.1799393,3.749687,9.433768271994733
57908719.82678883,-8.401501,-2.574769,3.7568657,9.556604749815621
57908737.913394414,-8.770008,-3.2519622,3.9722273,10.162031696130363
57908756.0,-8.846581,-3.4864671,4.118195,10.36228634457514
57908774.74018325,-9.473523,-3.2878556,3.5606472,10.64123305641072
57908792.82678883,-11.813787,-3.201711,3.4745026,12.723548440835863
57908810.913394414,-12.897775,-3.5869691,3.8621538,13.933240084410885
57908829.0,-11.698928,-3.5989337,4.6900997,13.107794449186324
57908846.74018325,-11.328027,-3.668328,5.2643976,13.019013331247448
57908864.82678883,-9.84921,-3.2471762,5.3194346,11.655362515238366
57908882.913394414,-8.76283,-2.6417706,4.371843,10.142936099994586
57908901.0,-9.023657,-2.6321988,3.201711,9.930045795659325
57908918.74018325,-9.317985,-2.9289196,1.6463208,9.905240363565229
57908936.82678883,-8.502003,-3.22564,1.1055236,9.16029425574124
57908954.913394414,-8.073672,-3.438609,0.86862564,8.818317408719784
57908973.0,-7.6453414,-3.5271466,0.7705164,8.454921867357172
57908990.74018325,-7.6190195,-3.929155,1.0217718,8.63317640076238
57909008.82678883,-7.236154,-4.22109,1.1557746,8.45667431238907
57909026.913394414,-7.207439,-4.474738,1.4764243,8.611056022404888
57909045.0,-7.3270845,-4.5943837,1.8521109,8.844480970575082
57909063.74018325,-7.420408,-4.4173083,2.1584032,8.901335398550215
57909081.82678883,-7.310334,-4.4388447,2.424016,8.889329503991293
57909099.913394414,-7.547232,-4.2354474,2.5173392,9.013141638066463
57909118.0,-8.099994,-4.2234826,2.6656997,9.515968839961534
57909136.74018325,-9.164838,-4.268948,2.5412683,10.424788590927534
57909154.82678883,-10.863803,-4.4460235,2.8930259,12.089621145570778
57909172.913394414,-11.359135,-4.735565,3.4242516,12.774232769037543
57909191.0,-9.239018,-4.3885937,3.8860826,10.941702163832941
57909208.74018325,-8.217246,-4.338342,4.2665553,10.2248636793572
57909226.82678883,-7.1978674,-3.7592585,4.0248713,9.063162172187404
57909244.913394414,-7.3510137,-3.4075012,3.5486827,8.845429088001804
57909263.0,-8.009064,-3.3692145,3.0270288,9.201066017540343
57909280.74018325,-8.5043955,-3.2208543,2.3546216,9.39376857929954
57909298.82678883,-8.992549,-3.3404996,2.2756555,9.859182676554958
57909316.913394414,-9.444808,-3.8812969,2.8978117,10.614432459226
57909335.0,-9.554882,-4.240233,3.2519622,10.947630066751517
57909353.74018325,-9.229446,-4.2904844,3.2112827,10.672547326335856
57909371.82678883,-9.138516,-4.0176926,2.5580187,10.305231107544383
57909389.913394414,-9.05955,-3.7425082,1.9837208,10.000848066135186
57909408.0,-9.078693,-3.4433947,1.978935,9.90938027237133
57909425.74018325,-9.234232,-3.464931,2.502982,10.175544523852716
57909443.82678883,-9.241411,-3.541504,3.098816,10.370563555313327
57909461.913394414,-9.05955,-3.4697168,3.153853,10.201037673703162
57909480.0,-8.60729,-3.098816,3.122745,9.666418058463073
57909497.74018325,-8.466109,-3.0126712,3.1466742,9.521173660853796
57909515.82678883,-8.281855,-3.0030997,3.2184613,9.379031036773616
57909533.913394414,-8.7389,-3.1107805,3.5080032,9.91722819039627
57909552.0,-8.547467,-3.0318146,3.6085055,9.760758363385111
57909570.74018325,-8.748472,-2.9528487,3.8142955,9.990191586811333
57909588.82678883,-8.57379,-2.8738825,3.7353296,9.783749935916312
57909606.913394414,-8.435001,-2.9863493,3.7137933,9.688125963608048
57909625.0,-8.540289,-3.0653152,3.6252558,9.771139805278894
57909642.74018325,-8.597719,-3.2376046,3.5989337,9.866872824046018
57909660.82678883,-8.667113,-3.3931437,3.5917552,9.976621539396277
57909678.913394414,-8.650363,-3.3931437,3.5367181,9.942362853944042
57909697.0,-8.576182,-3.3979294,3.48886,9.86250302935864
57909715.74018325,-8.774794,-3.460145,3.5175748,10.066923345146522
57909733.82678883,-9.014085,-3.22564,3.7137933,10.268921193190154
57909751.913394414,-9.1480875,-2.995921,3.2830698,10.170624113473533
57909770.0,-8.5043955,-2.88824,2.88824,9.434437101153424
57909787.74018325,-8.686256,-3.070101,3.175389,9.744724662557582
57909805.82678883,-8.652756,-3.2160685,3.3859649,9.83249923957588
57909823.913394414,-8.741293,-3.2112827,3.5247536,9.957229927639577
57909842.0,-8.865725,-3.2711053,3.4960387,10.07588687169575
57909860.74018325,-8.793938,-3.177782,3.3381069,9.92847428677718
57909878.82678883,-8.758043,-2.995921,3.1299238,9.771145420159115
57909896.913394414,-8.904011,-2.9648132,3.0892444,9.880028348235982
57909915.0,-8.956655,-2.9815636,2.9911351,9.902438057181774
57909932.74018325,-8.992549,-3.0078855,3.1179593,9.981732459596769
57909950.82678883,-8.925548,-2.9504557,3.22564,9.938578839430036
57909968.913394414,-8.846581,-2.943277,3.3404996,9.903727200700258
57909987.0,-8.841795,-2.9719918,3.2950344,9.892791606946727
57910004.74018325,-8.798723,-3.0868514,3.1993182,9.858083735760323
57910022.82678883,-8.748472,-3.046172,3.1036017,9.76971185350985
57910040.913394414,-8.863332,-2.9863493,3.1418884,9.866529227742097
57910059.0,-8.827438,-3.01985,3.2208543,9.870008008516127
57910076.74018325,-9.033228,-3.070101,3.3022132,10.096006154338419
57910094.82678883,-8.743686,-3.1323166,3.2471762,9.83908559893032
57910112.913394414,-8.868117,-3.2112827,3.3117847,9.996186953241839
57910131.0,-8.695828,-3.1610315,3.3117847,9.827383306289134
57910149.74018325,-8.798723,-3.206497,3.2663195,9.918063950077064
57910167.82678883,-8.767615,-3.1394954,3.2998202,9.8800970393602
57910185.913394414,-8.765223,-3.1371026,3.2304258,9.854247704008735
57910204.0,-8.810688,-3.177782,3.2830698,9.924971979030472
57910221.74018325,-8.736507,-3.177782,3.1849606,9.826943931056356
57910239.82678883,-8.7556505,-3.2352118,3.254355,9.885283887427537
57910257.913394414,-8.724543,-3.2471762,3.2591407,9.863255138902773
57910276.0,-8.793938,-3.2830698,3.254355,9.934924223442325
57910293.74018325,-8.758043,-3.3500714,3.3117847,9.944556977266561
57910311.82678883,-8.736507,-3.3189635,3.3668218,9.933658052718368
57910329.913394414,-8.767615,-3.206497,3.3548572,9.920068680791774
57910348.0,-8.808294,-3.2519622,3.2902486,9.949222944052806
57910365.74018325,-8.815474,-3.2352118,3.306999,9.955672735759057
57910383.82678883,-8.786758,-3.2902486,3.3213565,9.953103083986331
57910401.913394414,-8.731722,-3.1203523,3.278284,9.834973998239919
57910420.0,-8.760436,-2.9863493,3.1418884,9.774199904327773
57910438.74018325,-8.856153,-2.9935281,3.0270288,9.82626886467738
57910456.82678883,-8.832224,-3.022243,3.1562457,9.854137225348218
57910474.913394414,-8.88726,-3.070101,3.3524642,9.98238081171434
57910493.0,-8.860939,-3.1945324,3.4051082,10.015789488107165
57910511.74018325,-8.793938,-3.1490672,3.3189635,9.912895061095528
57910529.82678883,-8.719757,-3.1155663,3.275891,9.822035295834855
57910547.913394414,-8.717364,-3.204104,3.1658175,9.81229422686755
57910566.0,-8.640791,-3.3404996,3.2088897,9.804038952903403
57910583.74018325,-8.724543,-3.3189635,3.2447834,9.882397916806266
57910601.82678883,-8.774794,-3.1993182,3.2998202,9.905627695386865
57910619.913394414,-8.987762,-3.1825678,3.4218585,10.130040432508801
57910638.0,-8.860939,-3.2112827,3.390751,10.016275200145076
57910655.74018325,-8.810688,-3.254355,3.390751,9.985802013026795
57910673.82678883,-8.650363,-3.2854629,3.3237493,9.832108416219581
57910691.913394414,-8.736507,-3.2399976,3.256748,9.870691290105205
57910710.0,-8.743686,-3.1394954,3.1347096,9.804839647314449
57910728.74018325,-8.758043,-3.0054924,3.1706033,9.7871868809315
57910746.82678883,-8.7053995,-3.01985,3.1706033,9.744547181017245
57910764.913394414,-8.753258,-2.9743848,3.2328188,9.793753516740582
57910783.0,-8.758043,-3.0916374,3.2734983,9.847706845912436
57910800.74018325,-8.753258,-3.1682103,3.4457877,9.926254832164112
57910818.82678883,-8.724543,-3.1083877,3.4505734,9.883631996444823
57910836.913394414,-8.7053995,-2.9935281,3.3716075,9.803720114025396
57910855.0,-8.59054,-2.8834543,3.306999,9.646135421908067
57910872.74018325,-8.549861,-2.9073834,3.3141778,9.619603725930158
57910890.82678883,-8.561825,-2.9097762,3.3787863,9.653384987960395
57910908.913394414,-8.473288,-2.9600272,3.4984317,9.63314044926413
57910927.0,-8.44218,-2.9791706,3.5773976,9.640727887705893
57910945.74018325,-8.664721,-3.0294216,3.62047,9.867248261764146
57910963.82678883,-8.636005,-3.153853,3.6778998,9.902238032105371
57910981.913394414,-8.368,-3.4242516,3.644399,9.748362277393243
57911000.0,-7.7697725,-3.6228628,3.3333209,9.198126319623846
57911017.74018325,-7.4850163,-3.7042217,3.0533507,8.892113242149307
57911035.82678883,-7.908561,-3.6132913,2.8284173,9.143366750399766
57911053.913394414,-8.808294,-3.4697168,2.8906329,9.898521931339076
57911072.0,-9.696064,-3.6515777,3.4529665,10.921110494878969
57911090.74018325,-9.574025,-4.036836,4.03205,11.145197476672228
57911108.82678883,-9.045193,-4.469952,4.5680614,11.075340728109586
57911126.913394414,-8.810688,-4.6733494,4.8336744,11.082997151178905
57911145.0,-8.832224,-4.924605,4.8217096,11.2030709476881
57911162.74018325,-8.487645,-4.9963923,4.3335567,10.760286582319226
57911180.82678883,-7.8511314,-5.068179,4.087087,10.199557969915949
57911198.913394414,-7.4563017,-4.8815327,4.0033355,9.769979102749014
57911217.0,-7.2002606,-4.7953877,3.6659353,9.395668019093147
57911235.74018325,-7.133259,-4.630277,3.2519622,9.104839768389054
57911253.82678883,-7.2457256,-4.5943837,2.88824,9.052669846565767
57911271.913394414,-7.374943,-4.6039553,2.9265265,9.173371572810584
57911290.0,-7.4898024,-4.6589923,3.0964231,9.348325264811804
57911307.74018325,-7.4826236,-4.608741,3.359643,9.408365991595298
57911325.82678883,-7.3557997,-4.711636,3.6061125,9.45046826277261
57911343.913394414,-7.286405,-4.766673,3.7185793,9.467877339897392
57911362.0,-7.260083,-4.8647823,3.6922572,9.487237491716655
57911379.74018325,-7.2720475,-4.9102473,3.5702188,9.473102219932338
57911397.82678883,-7.5352674,-4.893497,3.6228628,9.687708838839843
57911415.913394414,-7.7889156,-4.7953877,3.6898644,9.862963485059753
57911434.0,-8.0617075,-4.78103,3.697043,10.075589442821956
57911451.74018325,-8.171782,-4.685314,3.6252558,10.093199093922285
57911469.82678883,-8.595325,-4.7714586,3.594148,10.467298069370289
57911487.913394414,-8.973405,-4.886318,3.594148,10.83125111596315
57911506.0,-9.937747,-4.972463,3.773616,11.735603156115753
57911524.74018325,-11.809001,-5.104073,3.9626558,13.461304052602172
57911542.82678883,-13.677863,-5.329006,4.1038375,15.242169249198463
57911560.913394414,-14.089443,-5.228504,4.3885937,15.655970515811044
57911579.0,-13.46968,-4.656599,4.55849,14.963155570577385
57911596.74018325,-12.505338,-4.0799084,4.8719606,14.027299495433429
57911614.82678883,-12.0243635,-3.6013267,4.6733494,13.393844339648924
57911632.913394414,-10.940375,-2.8690968,4.170839,12.054850457484582
57911651.0,-10.332577,-1.9597918,3.7592585,11.16848046200102
57911668.74018325,-9.712814,-0.859054,3.1394954,10.243688834601192
57911686.82678883,-9.906639,0.05025107,2.4072654,10.19504527466133
57911704.913394414,-10.430686,0.9858781,1.7803236,10.627357064640886
57911723.0,-10.380435,2.060294,1.1222739,10.642262018118245
57911741.74018325,-10.119608,2.5412683,0.95955616,10.477846089270582
57911759.82678883,-9.937747,2.3833365,0.80641,10.251312374342188
57911777.913394414,-9.124159,1.87604,0.60779864,9.334839191205539
57911796.0,-8.222033,0.83991075,0.7441944,8.298258975595177
57911814.74018325,-7.37255,0.08375178,1.1414171,7.460853896125133
57911832.82678883,-6.882004,-0.703515,1.5218896,7.083294457089099
57911850.913394414,-6.331635,-1.277813,1.7516087,6.692573561352143
57911869.0,-6.1832747,-1.7300725,1.9741492,6.71738802919535
57911886.74018325,-6.0516644,-2.1488314,1.9693633,6.717031353450735
57911904.82678883,-6.396243,-2.452731,2.010043,7.139193703441517
57911922.913394414,-6.745608,-2.988742,2.079437,7.665498305341734
57911941.0,-7.030364,-3.3404996,2.2062612,8.09027465743417
57911958.74018325,-7.3222985,-3.8286529,2.424016,8.61106798951423
57911976.82678883,-7.6118407,-4.319199,2.656128,9.146071003232016
57911994.913394414,-7.8319883,-4.630277,2.7757733,9.512330063715135
57912013.0,-8.159817,-5.1184306,2.8523464,10.04573667115052
57912030.74018325,-9.073908,-5.83391,2.9863493,11.193238781611624
57912048.82678883,-9.557275,-6.125845,2.579555,11.641373904641798
57912066.913394414,-10.492902,-6.482388,2.5651975,12.597721412150463
57912085.0,-11.258633,-6.97772,2.392908,13.459992649461327
57912103.74018325,-11.677391,-7.236154,2.7997024,14.020047032986827
57912121.82678883,-12.543624,-6.8030376,3.491253,14.690564017436456
57912139.913394414,-12.486195,-6.1043086,3.802331,14.409211293322754
57912158.0,-12.435944,-5.841089,3.0557437,14.07510545030291
57912175.74018325,-11.849681,-6.719286,1.5673548,13.712051094589754
57912193.82678883,-11.579282,-8.219639,1.0361292,14.237829913471282
57912211.913394414,-12.103329,-9.076301,1.720501,15.225962577644903
57912230.0,-12.739842,-8.57379,3.0844586,15.662928653485528
57912247.74018325,-12.77813,-7.31512,4.7834234,15.481367069318123
57912265.82678883,-13.170567,-6.0875583,5.6568346,15.57311718472397
57912283.913394414,-12.857095,-5.309863,5.5754757,14.986175836386163
57912302.0,-11.794644,-4.993999,5.199789,13.823583426277645
57912320.74018325,-10.464187,-4.524989,4.773852,12.359789558847432
57912338.82678883,-9.215089,-4.070337,4.2354474,10.928152783048779
57912356.913394414,-8.525931,-3.644399,3.9722273,10.087206412621251
57912375.0,-8.025814,-3.1155663,3.6061125,9.334050090659892
57912393.74018325,-7.599876,-2.763809,3.3165705,8.740503148293424
57912411.82678883,-7.1691527,-2.4383733,3.0772798,8.17386479907505
57912429.913394414,-6.695357,-2.1201165,2.864311,7.584654035336236
57912448.0,-6.6714277,-1.9478272,2.6680925,7.444507770561018
57912465.74018325,-6.6474986,-1.6798215,2.2732627,7.223486776624949
57912483.82678883,-6.6522846,-1.3496002,2.0220072,7.0825718645199105
57912501.913394414,-6.6522846,-1.0720228,1.770752,6.9668993051874235
57912520.0,-6.611605,-0.8614469,1.5936768,6.8553057685564145
57912537.74018325,-6.898754,-0.80641,1.6152129,7.131059988034206
57912555.82678883,-7.243333,-0.7872668,1.7276796,7.488026359697687
57912573.913394414,-7.7769513,-0.8183746,2.000471,8.07171560018921
57912592.0,-8.403893,-0.95237744,2.290013,8.762225738009661
57912610.74018325,-9.351485,-1.1533817,2.7781663,9.823378697860303
57912628.82678883,-9.928176,-1.1797037,3.2519622,10.513592994642627
57912646.913394414,-10.2344675,-1.2275618,3.4242516,10.861709441956087
57912665.0,-11.928647,-1.4716384,3.4266443,12.498009041030738
57912682.74018325,-12.94324,-1.7133222,3.2376046,13.451580509536935
57912700.82678883,-12.333048,-2.8690968,3.4697168,13.129155497985256
57912718.913394414,-12.242118,-3.9147975,4.0033355,13.461864199192119
57912737.0,-12.373728,-4.9652843,4.331164,14.018636680958192
57912754.74018325,-12.802058,-5.8386955,4.192375,14.681929788611212
57912772.82678883,-13.773579,-6.5541754,3.82626,15.726059876231114
57912790.913394414,-14.484273,-7.255297,3.4505734,16.563210911098295
57912809.0,-14.003298,-7.552018,3.330928,16.254858107357073
57912826.74018325,-12.337834,-7.5950904,3.541504,14.91475097270297
57912844.82678883,-9.810924,-7.2720475,4.0535865,12.867341142948472
57912862.913394414,-8.133494,-6.97772,4.536954,11.637278575532683
57912881.0,-6.6594634,-6.4991384,4.2593765,10.23374520334791
57912899.74018325,-5.9870563,-5.90809,3.228033,9.009470996488012
57912917.82678883,-5.623334,-5.388829,2.2206187,8.098920340242067
57912935.913394414,-5.4079723,-4.766673,1.588891,7.381863619464754
57912954.0,-5.1973963,-4.2019467,1.2490981,6.7992301352666535
57912971.74018325,-5.125609,-3.936334,1.457281,6.624972520199461
57912989.82678883,-5.235683,-3.988978,2.060294,6.8970380111616745
57913007.913394414,-5.1327877,-4.1110163,2.6130557,7.076300211511625
57913026.0,-5.3744717,-4.240233,2.7159507,7.364842846471361
57913044.74018325,-5.7381935,-4.5178103,2.6609137,7.772897546544406
57913062.82678883,-6.1880603,-4.8288884,2.502982,8.238638986411205
57913080.913394414,-6.8365383,-5.0370717,2.5867336,8.877023034535663
57913099.0,-7.731486,-5.398401,2.8834543,9.86067532297791
57913116.74018325,-8.72215,-5.5802617,3.0366004,10.790558987015782
57913134.82678883,-9.679314,-5.9726987,2.9719918,11.755636287791697
57913152.913394414,-11.095915,-6.556568,2.761416,13.180794056160083
57913171.0,-12.565161,-7.0973654,2.500589,14.646119346910949
57913189.74018325,-13.220818,-7.647734,2.5293038,15.481448305522788
57913207.82678883,-13.129887,-8.049743,2.9265265,15.676633961218213
57913225.913394414,-12.084186,-7.6405554,3.6420062,14.753638441547348
57913244.0,-11.27299,-7.1739383,3.8286529,13.899794145993145
57913261.74018325,-10.9786625,-6.611605,2.6393776,13.08474933196326
57913279.82678883,-11.012163,-6.2311325,1.3567789,12.725391748571454
57913297.913394414,-11.251453,-5.910483,0.81358874,12.735420312747937
57913316.0,-12.043507,-5.599405,1.0122001,13.320058042497939
57913333.74018325,-12.270833,-5.0849295,2.1823323,13.460773558807182
57913351.82678883,-11.911897,-4.331164,3.6420062,13.187739794761779
57913369.913394414,-11.79943,-3.9482985,4.63267,13.276943951787334
57913388.0,-10.856624,-3.8645465,5.003571,12.563308763223137
57913405.74018325,-9.858782,-3.8190813,4.991606,11.691753288483712
57913423.82678883,-8.7556505,-3.7425082,4.8599963,10.690526055402099
57913441.913394414,-7.9803486,-3.5821834,4.6494203,9.90631671282569
57913460.0,-7.4634805,-3.3787863,4.3096275,9.257031231647876
57913478.74018325,-7.1141157,-2.9935281,3.979406,8.683750617752223
57913496.82678883,-6.848503,-2.5986981,3.6850784,8.199696821840377
57913514.913394414,-6.556568,-2.184725,3.4003224,7.702194472239114
57913533.0,-6.405815,-1.9334698,3.0342073,7.347052825528773
57913550.74018325,-6.2670264,-1.849718,2.711165,7.074425222945392
57913568.82678883,-6.439316,-1.9478272,2.392908,7.140366240283466
57913586.913394414,-6.3651357,-2.1272953,2.2182257,7.068299868352861
57913605.0,-6.4680305,-2.316335,2.2947989,7.243405854471808
57913622.74018325,-6.5541754,-2.445552,2.4288018,7.405202086530279
57913640.82678883,-6.8580747,-2.4766598,2.5412683,7.721727587030057
57913658.913394414,-7.480231,-2.3378713,2.5364826,8.237307934563782
57913677.0,-8.470895,-2.3067634,2.4072654,9.103413985458518
57913695.74018325,-9.432844,-2.2086542,2.2493336,9.945662418743288
57913713.82678883,-10.416329,-2.1919038,2.474267,10.928236330350128
57913731.913394414,-11.081557,-1.9071478,2.835596,11.596496149721684
57913750.0,-11.742,-1.6822144,2.5867336,12.14065896090226
57913768.74018325,-12.088972,-1.7803236,2.184725,12.413130929105918
57913786.82678883,-12.313905,-2.3665862,2.2756555,12.744080765035024
57913804.913394414,-12.385693,-2.9313123,2.237369,12.922995122360035
57913823.0,-12.072222,-3.5103962,2.706379,12.860245440499938
57913840.74018325,-12.151187,-4.3646646,3.2160685,13.305815990616825
57913858.82678883,-12.3665495,-5.1830387,3.5056105,13.859463975181658
57913876.913394414,-12.488587,-5.783659,3.1586387,14.120641455755036
57913895.0,-12.447907,-6.3651357,2.9576344,14.290309387977814
57913912.74018325,-11.383064,-6.535032,2.8403819,13.429391594817972
57913930.82678883,-10.004748,-6.587676,3.1418884,12.38401874766566
57913948.913394414,-8.7389,-6.396243,3.3357139,11.331693825183516
57913967.0,-7.8200235,-5.9439836,3.5486827,10.44398666615869
57913985.74018325,-7.341442,-5.384043,3.5773976,9.78174132011774
57914003.82678883,-6.719286,-5.154324,3.254355,9.07230327495708
57914021.913394414,-6.2383113,-4.668564,2.7757733,8.271453022945641
57914040.0,-6.0038066,-4.2115183,2.4981961,7.7474875821451725
57914057.74018325,-6.0564504,-4.027264,2.6968074,7.757075281705787
57914075.82678883,-6.0492716,-3.852582,2.8284173,7.709475947185376
57914093.913394414,-6.034914,-3.9147975,3.125138,7.842978641590594
57914112.0,-6.015771,-4.1516957,3.412287,8.066584189122958
57914129.74018325,-5.9559484,-4.431666,3.4433947,8.183517088575465
57914147.82678883,-6.2287397,-4.819317,3.3883579,8.573446439754406
57914165.913394414,-6.3938503,-5.061001,3.2160685,8.765737240957165
57914184.0,-6.642713,-5.285934,3.0102785,9.007136664905627
57914201.74018325,-6.9131117,-5.372079,2.8427749,9.204983177115963
57914219.82678883,-7.2146177,-5.228504,2.5843408,9.27721833340759
