timestamp,accel_x,accel_y,accel_z,magnitude
57780735.712555066,-0.035893623,-2.1249025,9.636241,9.86780824685803
57780753.80837005,-0.045465253,-2.1296883,9.789387,10.01846980232791
57780771.90418502,-0.18425392,-2.1919038,9.731957,9.977443501485679
57780790.0,0.11485959,-2.2828343,9.624276,9.891977238694368
57780807.712555066,0.071787246,-2.3211207,9.652991,9.92839312067858
57780825.80837005,0.052643977,-2.237369,9.705635,9.960318377627312
57780843.90418502,-0.067001425,-2.184725,9.614705,9.860023567598713
57780862.0,-0.11485959,-2.1225095,9.6912775,9.921647992395792
57780879.712555066,-0.033500712,-2.1009734,9.624276,9.850984724858124
57780897.80837005,0.0598227,-2.112938,9.664956,9.893404885539422
57780915.90418502,0.047858164,-2.165582,9.655384,9.89537649561862
57780934.0,0.019143265,-2.1919038,9.66017,9.90574041462572
57780951.712555066,-0.002392908,-2.2206187,9.698457,9.949433215899656
57780969.80837005,0.002392908,-2.2325833,9.710421,9.96376986459887
57780987.90418502,-0.009571632,-2.239762,9.719993,9.974712494745509
57781006.0,-0.011964541,-2.1703677,9.662563,9.90332079821782
57781024.712555066,0.016750356,-2.1799393,9.688885,9.931108118902726
57781042.80837005,-0.002392908,-2.1560102,9.710421,9.94689206263714
57781060.90418502,-0.016750356,-2.1392598,9.686492,9.919921387409588
57781079.0,-0.019143265,-2.160796,9.662563,9.901238788514288
57781096.712555066,0.0,-2.2469406,9.6410265,9.899400690629237
57781114.80837005,0.021536173,-2.2325833,9.679314,9.933479325431868
57781132.90418502,0.03828653,-2.2445478,9.664956,9.922239422973036
57781151.0,0.016750356,-2.2206187,9.746315,9.996103444064632
57781169.712555066,-0.004785816,-2.187118,9.621883,9.867326918454044
57781187.80837005,-0.033500712,-2.1416528,9.6410265,9.87609188835111
57781205.90418502,-0.009571632,-2.1966896,9.739136,9.983802223671265
57781224.0,0.040679436,-2.2038684,9.662563,9.91079282751894
57781241.712555066,0.07418015,-2.1966896,9.614705,9.862732893596338
57781259.80837005,0.031107806,-2.2110472,9.703242,9.952015008368203
57781277.90418502,0.052643977,-2.1775463,9.66017,9.90269476990269
57781296.0,-0.033500712,-2.1990826,9.7176,9.96337474650669
57781314.712555066,-0.004785816,-2.187118,9.652991,9.897663527117892
57781332.80837005,-0.002392908,-2.1895108,9.698457,9.94253646964266
57781350.90418502,0.045465253,-2.1775463,9.648206,9.890988524728458
57781369.0,0.021536173,-2.1942968,9.67692,9.922609683930823
57781386.712555066,-0.0071787243,-2.1895108,9.703242,9.947206360982122
57781404.80837005,-0.019143265,-2.2014754,9.662563,9.91019596831309
57781422.90418502,-0.019143265,-2.1942968,9.650599,9.896937201472285
57781441.0,1.0839874,-3.441002,11.356742,11.916002362450538
57781458.712555066,-5.2643976,6.3651357,18.391891,20.161609289096475
57781476.80837005,-0.54797596,-1.9047549,8.947083,9.163987292150777
57781494.90418502,0.2392908,-1.3376356,9.798959,9.892730996496013
57781513.0,-0.3613291,-0.8734115,10.27754,10.320912499311243
57781530.712555066,0.9571632,-1.6582853,9.428058,9.620517095197863
57781548.80837005,0.47140288,-3.1801748,10.325398,10.814322738490437
57781566.90418502,-0.2991135,-1.6343563,10.744158,10.871868309090022
57781585.0,-0.26082698,-1.3854938,9.842031,9.942494555608032
57781603.712555066,-0.28714898,-2.084223,10.0430355,10.261042934551257
57781621.80837005,-0.41875893,-1.1103094,10.825516,10.890360079971604
57781639.90418502,-2.6226273,-7.2816195,7.731486,10.939654120020501
57781658.0,-1.8927903,-5.2572193,9.851603,11.325859418060759
57781675.712555066,-2.4670882,-4.4292727,13.5941105,14.50878427449229
57781693.80837005,-1.3376356,-3.462538,19.8061,20.150931383185032
57781711.90418502,1.0959519,0.22493336,32.720627,32.7397485765649
57781730.0,1.3998512,-2.763809,33.134598,33.279119702784
57781747.712555066,1.0863802,-6.4536734,24.41484,25.276758781901204
57781765.80837005,-0.6125845,-7.6908064,19.317947,20.801606648207013
57781783.90418502,-7.7697725,-12.146401,9.109801,17.055582552764307
57781802.0,-13.570182,1.8951832,-18.533073,23.048131240905743
57781820.712555066,-44.3358,20.512009,26.867573,55.75188027112996
57781838.80837005,6.5996404,12.191867,-9.916211,17.044885301800132
57781856.90418502,-0.57429796,7.1165085,-4.867175,8.640827729914387
57781875.0,-4.170839,9.217482,-3.0078855,10.554868429561559
57781893.712555066,-1.9980782,8.963834,-2.8188457,9.606691811090837
57781911.80837005,-4.376629,9.152873,-5.7070856,11.64048072905485
57781929.90418502,-9.664956,17.516087,-14.529737,24.72524894844689
57781948.0,-7.398872,14.515381,1.0289505,16.324776616511333
57781965.712555066,0.6867646,17.463444,16.046843,23.726455534352326
57781983.80837005,4.0918727,7.231368,39.286766,40.15577278652704
57782001.90418502,18.88483,-19.710384,58.549675,64.60031334414703
57782020.0,21.473957,-21.335169,38.824932,49.23104315674241
57782037.712555066,20.88291,-14.249767,24.599094,35.27417207027296
57782055.80837005,12.998277,-19.461521,25.422256,34.55426319185096
57782073.90418502,4.170839,-18.463678,9.708028,21.27320170779164
57782092.0,-3.3261423,-15.324183,2.7350938,15.917743097315546
57782110.712555066,-6.2598476,-10.837481,-0.30389932,12.519146983612071
57782128.80837005,-16.018127,-3.6372204,-2.0148287,16.54899693385218
57782146.90418502,-24.65174,7.1212945,-15.0322485,29.738688863987978
57782165.0,-24.106155,-8.628826,-44.149155,51.03637167977683
57782182.712555066,-30.27986,-1.1844895,-44.843098,54.12186596222283
57782200.80837005,-27.72184,-0.5431901,-8.882475,29.115182132282172
57782218.90418502,-11.615176,-4.0799084,1.5577831,12.409055332700076
57782237.0,-8.032992,0.22014755,13.529502,15.736100208877643
57782254.712555066,0.28954187,-7.185903,24.919744,25.936743771056307
57782272.80837005,14.515381,-13.364391,48.16924,52.053615768298386
57782290.90418502,24.034369,6.4297442,78.40124,82.25416060749265
57782309.0,15.116,25.115963,71.50967,77.28478476987738
57782326.712555066,8.016242,4.9820347,37.427475,38.59917991914068
57782344.80837005,4.8097453,-3.0629225,25.685476,26.310811873419155
57782362.90418502,-3.618077,-3.5558615,16.07077,16.852426548660915
57782381.0,-8.31057,-6.5278535,8.018635,13.265630490315463
57782399.712555066,-13.196888,-8.169388,-2.21344,15.67788473655448
57782417.80837005,-17.958775,-10.413936,-15.046606,25.639189040060472
57782435.90418502,-21.959717,-14.694849,-51.028767,57.46392624415059
57782454.0,-26.97286,-15.37922,-55.350357,63.464301811454995
57782472.712555066,-14.625454,-11.292133,-19.040369,26.53209045763198
57782490.80837005,-33.74479,1.2467052,-23.05567,40.88800612830989
57782508.90418502,-49.54995,-5.510867,-6.6977496,50.30335028403664
57782527.0,-24.92453,-47.035,35.237965,63.83758765854271
57782544.712555066,39.6122,-78.13323,71.85185,113.29879243617471
57782562.80837005,43.091488,-65.24264,58.8105,97.83738202994672
57782580.90418502,6.4106007,-38.45882,14.828852,41.71416412641088
57782599.0,4.132552,-28.633537,3.433823,29.133289679650012
57782616.712555066,7.8248096,-30.428219,5.7118716,31.933205820322826
57782634.80837005,2.526911,-25.78837,9.923389,27.747053099458004
57782652.90418502,-3.6132913,-23.137028,11.033699,25.88668484595972
57782671.0,-15.252397,-17.829557,1.277813,23.498117437889086
57782689.712555066,-23.63236,-14.283268,-17.19783,32.530993539059395
57782707.80837005,-27.831915,-6.4153867,-37.20733,46.90584275766359
57782725.90418502,-23.168137,-5.4295087,-47.468117,53.09862774403717
57782744.0,-25.867336,-10.856624,-44.094116,52.2616151896947
57782761.712555066,-35.269073,-17.102114,-27.193008,47.705864394604454
57782779.80837005,-59.686306,-11.509888,5.185432,61.00673201151496
57782797.90418502,-75.96526,-35.716545,34.900566,90.90897546845954
57782816.0,-11.282561,-78.40124,72.50511,107.382687582163
57782833.712555066,60.07396,-78.40124,78.40124,126.10467690437497
57782851.80837005,-27.338976,-40.342037,25.072891,54.80464780596465
57782869.90418502,-18.985332,-29.212622,6.4441013,35.43087011110184
57782888.0,-8.451752,-32.242043,9.250982,34.59135898815884
57782905.712555066,-14.512987,-21.308847,20.229645,32.77090613574185
57782923.80837005,-28.535429,-7.63577,8.444572,30.722735684995975
57782941.90418502,-33.76154,-0.021536173,-16.64746,37.64279441579686
57782960.0,-26.929789,-9.918604,-38.063988,47.67032015161511
57782978.712555066,-17.40362,-13.218424,-52.14625,56.54064123451976
57782996.80837005,-13.697006,-18.367962,-47.10679,52.38358202243886
57783014.90418502,-21.505066,-19.463915,-33.574894,44.36874302820418
57783033.0,-36.975216,-11.354349,-14.644597,41.35882083368512
57783051.712555066,-61.246483,-3.512789,2.835596,61.41263690074727
57783069.80837005,-72.115074,-43.854828,32.842663,90.56749057949342
57783087.90418502,-11.797037,-78.40124,78.40124,111.50192352176967
57783106.0,-18.095171,-78.33903,78.40124,112.29956931528162
57783123.712555066,-38.497105,-22.323439,8.781973,45.359520190809725
57783141.80837005,-25.58258,-20.28229,12.407228,34.925334554510485
57783159.90418502,-18.731684,-18.84415,-0.014357449,26.570249920441057
57783178.0,-22.541195,-4.7475295,6.144988,23.841253865968106
57783195.712555066,-20.897266,7.853524,-15.565867,27.215249051864674
57783213.80837005,-13.6443615,-1.5673548,-33.73761,36.42597329274628
57783231.90418502,-5.2500405,-13.69222,-46.431988,48.69260029421498
57783250.0,1.1629534,-19.234196,-45.046494,48.99483011572776
57783268.712555066,-6.5541754,-19.334698,-30.969017,37.092691677356854
57783286.80837005,-13.622826,-8.805902,-27.520836,31.945605525623957
57783304.90418502,-34.563164,11.600819,-21.342348,42.24555746246889
57783323.0,-73.89539,10.734586,-4.6589923,74.8162162174415
57783340.712555066,-78.32227,-41.48824,78.40124,118.33176441593399
57783358.80837005,-63.16081,-75.048775,78.40124,125.5721345776774
57783376.90418502,-54.163475,-32.727802,3.567826,63.38391302367742
57783395.0,-36.020447,-13.096386,-2.4790528,38.40746842901772
57783412.712555066,-17.55916,-4.742744,-3.9961565,18.62221757277119
57783430.80837005,-27.525621,0.70830077,17.16433,32.44650560176432
57783448.90418502,-15.482116,18.55461,-12.703949,27.301278143782152
57783467.0,-8.793938,15.888909,-38.150135,42.251906173288205
57783485.712555066,-8.35125,-3.438609,-50.42336,51.22580055115763
57783503.80837005,-7.585519,-17.082972,-48.856003,52.30943566879836
57783521.90418502,-11.995648,-36.376987,-43.122597,57.67789113830777
57783540.0,-27.389227,-24.847958,-27.989845,46.37911378574754
57783558.712555066,-45.55858,14.809709,-17.099722,50.86562871682965
57783576.80837005,-78.30313,16.211952,-1.3974583,79.97599918192608
57783594.90418502,-78.32227,-63.948074,61.882996,118.54635945569309
57783613.0,-24.261696,-78.40124,78.40124,113.49950995432367
57783630.712555066,-65.3575,-51.46906,24.955639,86.8530417511783
57783648.80837005,-48.102238,-17.760164,-6.5972476,51.69886267425276
57783666.90418502,-28.674217,-14.548882,-10.796802,33.9183080568624
57783685.0,-17.841522,-10.291898,-1.0600582,20.624422297516006
57783702.712555066,-24.465092,8.432608,-11.098308,28.157095814607583
57783720.80837005,-14.723563,15.874553,-37.70266,43.477296505651985
57783738.90418502,-10.14593,8.990156,-45.862476,47.82394280399529
57783757.0,-9.796566,-9.66017,-48.004128,49.93683905556738
57783775.712555066,-17.090149,-19.75585,-49.210155,55.713608366257574
57783793.80837005,-37.690697,-32.048218,-29.073833,57.38435921602002
57783811.90418502,-67.26465,-15.94634,-7.4586945,69.53021661596078
57783830.0,-78.32227,-4.9102473,18.61204,80.65293881478627
57783847.712555066,-52.75884,-62.60087,78.40124,113.35395253999792
57783865.80837005,-7.310334,-78.40124,78.40124,111.11682973459402
57783883.90418502,-55.13021,-42.962273,7.367764,70.28072923874883
57783902.0,-31.962074,-20.59576,1.9597918,38.07361669527106
57783919.712555066,-27.683554,-18.34882,4.582419,33.526958128569866
57783937.80837005,-21.837679,-8.973405,3.280677,23.836297174254963
57783955.90418502,-24.62781,-4.2976627,1.0433079,25.021738977402702
57783974.0,-24.996319,4.0727296,-23.720898,34.699914868352074
57783991.712555066,-22.086542,2.7135577,-57.422615,61.583564742122704
57784009.80837005,-13.651541,0.25364825,-65.70686,67.11050856735486
57784027.90418502,-11.842503,-15.204538,-46.50617,50.341302140164714
57784046.0,-26.913038,-18.525894,-32.419117,46.02737783046487
57784064.712555066,-49.52841,-15.453401,-12.773343,53.43247412379994
57784082.80837005,-78.32227,-6.6259627,-3.048565,78.66114103045999
57784100.90418502,-78.32227,-42.63205,41.129303,98.2012689857988
57784119.0,-5.6113696,-78.40124,78.40124,111.0180000534283
57784137.712555066,-62.7588,-68.279236,8.609683,93.13886239129286
57784155.80837005,-39.219765,-26.247808,-0.72744405,47.19816274290737
57784173.90418502,-29.181515,-12.244511,2.057901,31.713149068645755
57784192.0,-25.82187,-9.80853,12.012399,30.120988708755913
57784209.712555066,-34.077404,-2.81406,2.1990826,34.26403889421734
57784227.80837005,-29.40166,2.7877378,-22.890558,37.36584989463658
57784245.90418502,-24.70199,1.0385221,-56.664062,61.822995401809294
57784264.0,-15.687905,-5.6999073,-66.276375,68.34586446639068
57784281.712555066,-13.077243,-13.677863,-53.522175,56.76901828866202
57784299.80837005,-23.12985,-23.170528,-35.202072,48.07337310730825
57784317.90418502,-50.03571,-19.990355,-23.306925,58.70604160719534
57784336.0,-72.47879,-11.892754,0.42354473,73.4492477000747
57784354.712555066,-78.32227,-41.969215,33.536606,94.97629666221125
57784372.80837005,-20.686691,-78.40124,78.40124,112.78939689352312
57784390.90418502,-45.304928,-77.458435,37.21929,97.1474199443223
57784409.0,-31.10302,-30.74169,2.08183,43.78108465222624
57784426.712555066,-24.1923,-19.439985,8.32732,32.1329216610103
57784444.80837005,-20.923588,-13.426607,5.3960075,25.439874356337715
57784462.90418502,-21.28731,-8.523539,-1.1150951,22.957432809499085
57784481.0,-22.955168,-2.8308103,-25.383968,34.34092392886124
57784498.712555066,-17.358156,0.13400285,-47.901234,50.94950201137299
57784516.80837005,-13.022206,-1.1797037,-56.877033,58.360658262303026
57784534.90418502,-14.374199,-4.929391,-43.732788,46.297659106864415
57784553.0,-25.092033,-14.699635,-31.428455,42.818654496531515
57784570.712555066,-47.917984,-19.595524,-17.396442,54.614594621934124
57784588.80837005,-66.549164,-21.079128,9.920997,70.50919832059708
57784606.90418502,-42.397545,-48.724396,78.40124,101.57939269915647
57784625.0,-4.7953877,-78.40124,78.40124,110.97974864933022
57784643.712555066,-36.05155,-55.90551,20.82548,69.70538661389807
57784661.80837005,-23.87165,-31.90225,10.9284115,41.316333413050245
57784679.90418502,-27.001575,-20.780014,13.771186,36.74968840912011
57784698.0,-21.404562,-9.667349,2.8738825,23.66161684508164
57784716.712555066,-24.64456,-1.4548881,-10.880553,26.978833750978385
57784734.80837005,-22.605803,3.878904,-37.578228,44.024895742477455
57784752.90418502,-19.016441,5.185432,-57.190502,60.49187757331648
57784771.0,-14.632633,-10.528795,-55.12303,57.99584389458967
57784788.712555066,-21.605568,-11.581676,-39.63613,46.604276509227134
57784806.80837005,-41.287235,-13.184923,-21.282524,48.28481952199604
57784824.90418502,-62.16775,-32.976665,-1.9334698,70.39906164184461
57784843.0,-74.98417,-65.16607,25.101606,102.46625324277764
57784861.712555066,9.554882,-78.40124,78.40124,111.28703714768008
57784879.80837005,-48.726788,-68.16917,26.879536,87.99911967094408
57784897.90418502,-29.188692,-19.1648,-12.998277,37.25888490923464
57784916.0,-13.716149,-12.120079,23.64911,29.905007308953163
57784933.712555066,-19.478271,-7.138045,4.529775,21.23378414513275
57784951.80837005,-21.016912,-1.5506045,-5.099287,21.682197587872253
57784969.90418502,-18.619217,7.8774533,-25.328932,32.40809016969982
57784988.0,-17.72427,12.636948,-47.9132,52.626200091091555
57785005.712555066,-14.898246,4.008121,-56.00362,58.08982889397728
57785023.80837005,-15.850623,-5.5060816,-46.972786,49.879873783679365
57785041.90418502,-31.351881,-16.11863,-34.151585,49.08239433164692
57785060.0,-50.476,-23.062849,-8.626433,56.161703377838265
57785077.712555066,-59.31301,-41.0288,17.618982,74.2416602145751
57785095.80837005,-25.367218,-76.77646,78.40124,112.62715033564831
57785113.90418502,-15.276325,-78.40124,78.40124,111.92352287424134
57785132.0,-43.079525,-42.538727,-3.3141778,60.633097756061964
57785150.712555066,-17.726664,-17.398834,-4.6757426,25.274821660892222
57785168.80837005,-15.422293,-15.719013,18.073635,28.488432269699274
57785186.90418502,-22.615374,-9.495059,-10.265575,26.589345923771457
57785205.0,-16.953754,-1.4644598,-26.37942,31.391849527142103
57785222.712555066,-12.388085,0.4402951,-43.629894,45.35665508162551
57785240.80837005,-10.222504,0.19621846,-52.397507,53.38573619918629
57785258.90418502,-10.744158,-3.7664373,-43.433674,44.90108036787168
57785277.0,-19.86353,-5.1160374,-33.472,39.2569541194818
57785295.712555066,-36.74789,-13.187317,-14.402914,41.61438069708577
57785313.80837005,-58.169205,-19.626633,1.3232782,61.40531083255999
57785331.90418502,-48.650215,-52.246754,66.66642,97.67793138011852
57785350.0,-11.476387,-78.40124,78.40124,111.46845439696816
57785367.712555066,-40.243927,-63.790142,8.308177,75.88004798248893
57785385.80837005,-25.529936,-21.873573,-6.5804973,34.256879202077535
57785403.90418502,-15.108822,-7.5376606,10.380435,19.820349652256425
57785422.0,-14.970033,-7.6692705,8.312963,18.76232799688323
57785440.712555066,-22.344976,-7.1835103,-3.9913707,23.80822993705329
57785458.80837005,-20.270325,-0.2656128,-31.64621,37.58243250681426
57785476.90418502,-16.166487,5.0346785,-57.64276,60.07820794545333
57785495.0,-10.390007,6.5804973,-53.663357,55.05461901316551
57785512.712555066,-13.235175,-1.5817122,-41.260914,43.360520002412905
57785530.80837005,-25.752478,-7.4898024,-32.459797,42.1061240725472
57785548.90418502,-48.40853,-9.995177,-17.085363,52.29912971421224
57785567.0,-71.28234,-24.204266,-2.9025974,75.33553982112853
57785584.712555066,-58.073486,-74.328514,70.18878,117.5743280122357
57785602.80837005,-16.534994,-78.40124,78.40124,112.10225195621736
57785620.90418502,-46.896214,-54.718628,-5.4821525,72.27335009372014
57785639.0,-23.144207,-32.170258,2.895419,39.736170784701606
57785656.712555066,-21.796999,-20.121964,14.383771,32.96809774317799
57785674.80837005,-22.172686,-9.868353,9.688885,26.132104544610065
57785692.90418502,-29.514128,-3.5199678,-1.8162172,29.77872680003288
57785711.0,-24.486628,4.505846,-34.103725,42.22513064351281
57785729.712555066,-15.585011,3.3261423,-55.694935,57.9299713026357
57785747.80837005,-7.6931996,3.543897,-56.18309,56.81799123499659
57785765.90418502,-10.428293,-2.5723763,-41.1652,42.54339085877677
57785784.0,-21.751535,-10.646049,-31.170021,39.47198808404597
57785801.712555066,-44.094116,-12.967169,-18.557003,49.566126518399905
57785819.80837005,-67.635544,-14.9317465,-0.4139731,69.26539712904071
57785837.90418502,-52.64637,-53.380993,78.40124,108.4800678529496
57785856.0,-30.79912,-78.40124,78.40124,115.0743006055201
57785874.712555066,-45.879227,-63.830822,13.706577,79.79440807707105
57785892.80837005,-31.978825,-27.72902,-6.2119894,42.7800492151042
57785910.90418502,-23.395462,-11.0672,3.8693323,26.1687273378219
57785929.0,-17.283976,-1.8784329,2.9600272,17.635932001261462
57785946.712555066,-17.599838,-2.0674727,-1.4237803,17.777960831719632
57785964.80837005,-18.198067,5.577869,-18.458893,26.514392240877388
57785982.90418502,-6.874825,12.139223,-35.28343,37.94132821066303
57786001.0,-5.448652,8.166995,-46.67367,47.69506355186068
57786019.712555066,-3.852582,-0.13639577,-39.116867,39.306364316335426
57786037.80837005,-12.392871,-3.9387267,-37.20972,39.416495051162705
57786055.90418502,-30.808691,-6.898754,-28.566536,42.57716790634733
57786074.0,-56.812424,-4.398165,-2.132081,57.0222863932477
57786091.712555066,-50.409,-59.95431,78.40124,110.82572355781711
57786109.80837005,-22.273188,-78.40124,78.40124,113.09113038058531
57786127.90418502,-42.354473,-49.52602,47.6763,80.74501608048715
57786146.0,-32.82352,-19.380163,6.369921,38.64647560442233
57786163.712555066,-23.062849,-2.7207365,1.5912839,23.27723341700281
57786181.80837005,-15.996591,7.0447216,-6.743215,18.73472643459233
57786199.90418502,-14.472308,5.4773664,-11.5218525,19.292545880688458
57786218.0,-14.199516,11.246668,-38.33439,42.39857606581357
57786236.712555066,-12.120079,4.950927,-46.98475,48.774734501461616
57786254.80837005,-11.249061,8.267497,-40.157784,42.51517959290994
57786272.90418502,-16.803001,8.700614,-36.613888,41.21429753204028
57786291.0,-28.686182,8.150245,-27.094898,40.29214599556039
57786308.712555066,-52.433403,0.5001178,-20.476114,56.29194536090649
57786326.80837005,-77.13539,-20.863766,17.583088,81.81888599688094
57786344.90418502,-43.579643,-78.40124,78.40124,119.13309427309714
57786363.0,-17.49455,-78.40124,78.40124,112.2477979595934
57786380.712555066,-46.912964,-40.727295,22.356941,66.02553718191017
57786398.80837005,-37.362865,-18.676647,-0.35893622,41.77235520509781
57786416.90418502,-28.212387,-9.246197,-6.1880603,30.326935708656983
57786435.0,-22.017147,-9.229446,-3.6635423,24.152825459362187
57786453.712555066,-24.16598,-1.3113136,-8.040172,25.502127332980066
57786471.80837005,-20.823086,11.804215,-32.754128,40.56813162286384
57786489.90418502,-12.636948,14.89346,-54.831097,58.206157782056984
57786508.0,-8.612076,9.650599,-47.62844,49.35352278127851
57786526.712555066,-17.939632,9.664956,-34.943638,40.45120032152821
57786544.80837005,-35.886444,-0.5431901,-26.57803,44.660089533394064
57786562.90418502,-59.198154,-15.83148,-10.251218,62.13006250183272
57786581.0,-65.48672,-45.51311,62.679836,101.43330576895045
57786598.712555066,-13.606075,-78.40124,78.40124,111.70780699656056
57786616.80837005,-32.61773,-51.61503,54.43866,81.80217194457248
57786634.90418502,-31.05516,-15.931982,14.410092,37.761114450217015
57786653.0,-22.708698,-9.243804,3.9004402,24.826322945603444
57786670.712555066,-18.147816,-5.6113696,-1.1031306,19.02754822562057
57786688.80837005,-16.764713,-2.084223,-4.7547083,17.550123603672624
57786706.90418502,-16.13538,3.3165705,-14.840816,22.17205329173927
57786725.0,-12.356977,4.44363,-32.993416,35.510649494264186
57786742.712555066,-7.9372764,1.1007377,-34.56795,35.48457618933469
57786760.80837005,-6.2837768,-0.42115182,-31.272917,31.900761078955412
57786778.90418502,-8.963834,-4.29527,-29.494986,31.124811059549454
57786797.0,-16.666605,-5.8745894,-14.158837,22.644186627856307
57786815.712555066,-20.196144,-12.579518,5.8985186,24.513690608629414
57786833.80837005,-16.255024,-27.645267,25.850586,41.19149656525314
57786851.90418502,-9.313198,-34.398052,34.479412,49.586202619757564
57786870.0,-8.169388,-17.635733,26.307632,32.70855362423195
57786887.712555066,-7.5639825,-0.07657306,9.109801,11.840953042446584
57786905.80837005,-4.2067323,10.643655,-7.1404376,13.489619621115418
57786923.90418502,-2.2589052,11.485959,7.441944,13.871281027771158
57786942.0,-1.4094229,8.088029,21.875965,23.365798310717107
57786959.712555066,-0.46422416,-2.0866158,28.671825,28.75140028586716
57786977.80837005,0.009571632,3.5343254,22.99824,23.268231362671816
57786995.90418502,-2.9600272,9.705635,5.21654,11.409355869178803
57787014.0,-0.25604117,11.895146,5.8123736,13.241742419637529
57787032.712555066,7.083008,-0.7418015,48.14531,48.669190940363556
57787050.80837005,-1.7109293,8.959048,21.165272,23.046920813199463
57787068.90418502,-1.0911661,4.113409,-3.1562457,5.298364273796084
57787087.0,-2.5388756,-1.0720228,0.17228939,2.7613050954035794
57787105.712555066,1.1342385,-3.0940301,17.77213,18.07506912770981
57787123.80837005,-1.5027462,0.16271774,14.445986,14.524848870701586
57787141.90418502,-0.8925547,-1.5817122,8.219639,8.41789360032793
57787160.0,-0.72505116,-2.6345918,8.205282,8.648319249239623
57787177.712555066,-1.430959,-3.9100118,10.12918,10.951535207824529
57787195.80837005,-1.3304569,-4.7762446,10.169859,11.314091219433745
57787213.90418502,-1.1940612,-5.111252,9.916211,11.219711215239474
57787232.0,-1.5769265,-3.955477,10.107644,10.967997206175212
57787249.712555066,-1.7013576,-0.42833054,6.8293595,7.051115934007517
57787267.80837005,-1.5123179,-0.93323416,9.152873,9.323792982589238
57787285.90418502,-2.8068812,-2.1823323,12.90256,13.3834678201181
57787304.0,-2.6656997,-1.7348584,7.8942037,8.510824908064103
57787321.712555066,-2.2517266,-2.2206187,8.609683,9.172135054196827
57787339.80837005,-2.3474429,-2.112938,9.664956,10.167908813642086
57787357.90418502,-2.833203,-1.7875023,9.899461,10.45091057287523
57787376.0,-2.81406,-2.5986981,9.968855,10.67943048619956
57787394.712555066,-2.215833,-2.5628045,7.9205256,8.614674025717086
57787412.80837005,-2.5364826,-2.1201165,9.0428,9.628129091037106
57787430.90418502,-2.1201165,-1.1294526,10.964305,11.224372645375064
57787449.0,-3.1897464,-2.4048727,9.554882,10.356334526918403
57787466.712555066,-3.1036017,-1.4189945,7.822417,8.534406635798538
57787484.80837005,-2.998314,-2.2421548,8.956655,9.707667782674891
57787502.90418502,-3.2711053,-1.5721406,9.188767,9.87953414540106
57787521.0,-3.1586387,-1.8784329,10.062179,10.712280561345521
57787538.712555066,-4.4867024,-2.4000869,9.844424,11.081678548193562
57787556.80837005,-3.2471762,-2.967206,8.533111,9.600127502205552
57787574.90418502,-3.1059947,-2.4910173,7.815238,8.77099283216965
57787593.0,-3.5103962,-1.304135,9.655384,10.356161922578048
57787611.712555066,-3.4864671,-1.1270597,9.05955,9.77246962692883
57787629.80837005,-3.649185,-1.5218896,9.19116,10.005504548218104
57787647.90418502,-3.4792883,-1.9238981,8.851367,9.70327412487092
57787666.0,-3.5917552,-1.2155973,9.105016,9.863047124127023
57787684.712555066,-3.22564,-1.3352427,9.26534,9.901219712394191
57787702.80837005,-3.4290373,-1.6152129,8.942298,9.712461224526031
57787720.90418502,-3.3141778,-1.8975761,9.121766,9.888942537200831
57787739.0,-3.1634245,-1.7946811,9.124159,9.82234250447308
57787756.712555066,-3.2711053,-2.3306925,9.739136,10.534848239995693
57787774.80837005,-3.359643,-2.7255223,9.514202,10.451588998427477
57787792.90418502,-3.3955367,-1.9861137,8.968619,9.793387763053987
57787811.0,-2.6656997,-1.9215052,8.356035,8.978945263528013
57787828.712555066,-3.2663195,-1.4405307,9.088264,9.764246735279622
57787846.80837005,-3.3022132,-0.95237744,8.758043,9.408238517189295
57787864.90418502,-3.125138,-0.94280577,9.274912,9.832566442528282
57787883.0,-3.2663195,-0.93323416,8.408679,9.068938835305492
57787901.712555066,-3.2160685,-2.474267,9.906639,10.705446747347924
57787919.80837005,-3.6061125,-4.108623,9.978427,11.377778153625348
57787937.90418502,-2.94567,-4.4867024,8.418251,9.983707731803188
57787956.0,-3.7329366,-1.9167194,9.32277,10.223632886154311
57787973.712555066,-3.512789,-1.6630712,10.040643,10.766615263314625
57787991.80837005,-3.3428926,-1.639142,9.2988405,10.016494001183199
57788009.90418502,-3.0844586,-2.163189,9.126552,9.873561814944948
57788028.0,-3.43143,-3.0054924,9.686492,10.70681202213907
57788045.712555066,-2.8451676,-3.0270288,8.968619,9.88402796410857
57788063.80837005,-3.0413861,-1.8832186,8.492431,9.215092294405963
57788081.90418502,-3.1418884,-1.8066456,8.961441,9.666584497046252
57788100.0,-3.256748,-1.7516087,8.896832,9.634737163495624
57788117.712555066,-3.5175748,-1.8545038,9.966462,10.730465116445489
57788135.80837005,-3.3452854,-2.0937946,8.961441,9.79195256478111
57788153.90418502,-3.0748868,-1.9980782,8.741293,9.47931688667377
57788172.0,-2.9121692,-1.8975761,8.243568,8.946392450331242
57788190.712555066,-3.0246358,-2.5293038,8.557039,9.421715124267825
57788208.80837005,-3.3404996,-3.3740003,9.258162,10.404632584586745
57788226.90418502,-3.7161863,-3.773616,9.9425335,11.26517601861533
57788245.0,-3.8214743,-4.0248713,9.664956,11.145161698650234
57788263.712555066,-3.1873536,-2.706379,7.7960944,8.84662637149243
57788281.80837005,-3.3524642,-2.0531151,8.0306,8.941187515432704
57788299.90418502,-3.1442811,-2.290013,8.511574,9.358288045014548
57788318.0,-3.1682103,-1.9310769,8.262712,9.057539626945262
57788335.712555066,-3.3763933,-2.2445478,8.968619,9.842466830522252
57788353.80837005,-3.3333209,-3.5486827,10.531189,11.602160095489852
57788371.90418502,-3.3141778,-3.2639267,9.645813,10.708814146484881
57788390.0,-2.9648132,-5.1926107,11.844895,13.268566642771695
57788407.712555066,-2.8571322,-1.9932925,11.852074,12.353464190271048
57788425.80837005,-3.22564,3.7161863,6.6211767,8.249531799958746
57788443.90418502,-4.7762446,4.862389,14.450772,15.977488872233153
57788462.0,-7.185903,4.03205,30.772799,31.856864055055855
57788480.712555066,-10.090894,-1.5266753,49.44227,50.4846010377795
57788498.80837005,-11.481173,-14.85996,45.474827,49.19954913754249
57788516.90418502,-10.1842165,-3.017457,34.749813,36.33693459829393
57788535.0,-12.780522,3.1179593,23.625181,27.04094284731399
57788552.712555066,-15.005927,3.022243,12.747022,19.91979838625035
57788570.80837005,-13.926725,5.853053,4.9269977,15.889845971004227
57788588.90418502,-19.540487,6.9418263,0.21775463,20.73805684376979
57788607.0,-22.170294,3.4553592,-4.0153,22.794386969985847
57788624.712555066,-31.653389,-6.5039244,-35.405468,47.93521912002969
57788642.80837005,-24.62781,-33.428925,-78.06863,88.4236000292265
57788660.90418502,-15.90566,-11.828145,-45.38868,49.52804565414453
57788679.0,-27.391619,-5.149538,-47.901234,55.419732512683254
57788696.712555066,-44.979492,6.664249,-35.60169,57.74986793204089
57788714.80837005,-75.97005,22.148758,-15.029856,80.54757941320024
57788732.90418502,-78.32227,-6.070808,18.327284,80.66673432427038
57788751.0,-78.32227,-50.607613,78.40124,121.82882624834022
57788769.712555066,-47.28626,-78.40124,78.40124,120.53837252867984
57788787.80837005,-53.67532,-38.243458,41.516956,77.89261641777159
57788805.90418502,-46.281235,-20.957088,21.390205,55.124342358952404
57788824.0,-42.017075,-10.447436,3.3955367,43.429404555102614
57788842.712555066,-33.99844,-3.6922572,3.228033,34.35035491393999
57788860.80837005,-32.462193,6.774323,-10.870981,34.897903294896366
57788878.90418502,-28.047276,5.857839,-37.67155,47.32979662086662
57788897.0,-18.786722,-5.9726987,-63.620247,66.60442839336791
57788914.712555066,-7.865489,-20.954697,-60.10985,64.14171271951997
57788932.80837005,-13.01742,-17.83913,-39.466232,45.22467524362252
57788950.90418502,-22.902523,-3.1155663,-34.35259,41.40450160119458
57788969.0,-46.00366,12.440729,-31.698854,57.23570403480993
57788986.712555066,-78.32227,14.713992,-18.779543,81.87521464898772
57789004.80837005,-78.32227,-22.524445,49.55952,95.3827794894934
57789022.90418502,-72.136604,-68.774574,78.40124,126.80846225339968
57789041.0,-68.360596,-33.026917,45.273823,88.3949511060187
57789059.712555066,-48.784218,-8.961441,4.2474117,49.78200334274729
57789077.80837005,-39.078583,-9.775029,7.3031554,40.93925890920938
57789095.90418502,-33.31885,-10.076536,-1.9095407,34.86156463451909
57789114.0,-33.539,-0.81358874,-2.9313123,33.67668391391864
57789131.712555066,-25.695047,7.8008804,-24.407663,36.288058483044836
57789149.80837005,-16.271774,-2.5843408,-46.838783,49.65199934945933
57789167.90418502,-5.0155354,-12.749414,-60.4975,62.0294338112323
57789186.0,-6.7216787,-18.221994,-48.013702,51.79321972639734
57789203.712555066,-18.688612,-10.662799,-40.65551,45.99815207550239
57789221.80837005,-42.0075,4.6278844,-33.405,53.869670458150786
57789239.90418502,-77.99205,6.537425,-30.720154,84.07868725555153
57789258.0,-78.32227,-28.547394,20.686691,85.89104066591356
57789276.712555066,-78.32227,-78.40124,78.40124,135.7493530188196
57789294.80837005,-78.32227,-52.438187,19.439985,96.23956800921383
57789312.90418502,-41.16759,-0.6173703,-13.761615,43.4112158307464
57789331.0,-28.5115,-5.2978983,-2.6154485,29.1172445383023
57789348.712555066,-22.802021,-4.9581056,-7.7889156,24.600450789550905
57789366.80837005,-22.699125,4.7499228,-15.546724,27.91975410894159
57789384.90418502,-9.593168,5.6807637,-31.801748,33.699423204959544
57789403.0,0.8279462,-1.8568966,-42.316185,42.364998204265405
57789421.712555066,2.7231295,-10.246432,-46.68085,47.869683096161125
57789439.80837005,-3.2926416,-12.428764,-42.306614,44.21725060899584
57789457.90418502,-20.4474,-13.0102415,-32.90488,40.866779643895626
57789476.0,-45.754795,-1.225169,-29.643345,54.53191916079619
57789493.712555066,-77.94898,4.0966587,2.6226273,78.10060351559002
57789511.80837005,-78.32467,-47.874912,78.40124,120.72081661069993
57789529.90418502,-78.32227,-54.517624,75.02724,121.39042815055838
57789548.0,-43.598785,-20.509615,-4.144517,48.359852999029464
57789566.712555066,-29.863493,-5.8721967,0.021536173,30.435363839640345
57789584.80837005,-21.844858,-1.1390243,-4.7283864,22.379741628174784
57789602.90418502,-21.73957,-1.1462029,-3.1897464,22.00220822938419
57789621.0,-15.541938,6.513496,-24.201872,29.490813404215288
57789638.712555066,-2.1153307,11.287348,-41.909393,43.45429864204364
57789656.80837005,10.736979,1.9717562,-56.197445,57.24791144737688
57789674.90418502,7.394086,0.52165395,-50.097923,50.643326505403216
57789693.0,-8.317748,-0.57429796,-42.165432,42.981838091047116
57789710.712555066,-43.3571,4.3550925,-33.050846,54.69152925645134
57789728.80837005,-74.85973,0.6843717,-12.088972,75.83264985686208
57789746.90418502,-78.32227,-28.547394,77.02293,113.49829702655911
57789765.0,-78.32467,-72.56015,78.40124,132.46314103239814
57789782.712555066,-52.86652,-21.438063,6.3675284,57.402133235857846
57789800.80837005,-34.60145,-11.08395,-0.7776951,36.34169918115503
57789818.90418502,-27.891737,-5.790838,-2.4814458,28.59441153228635
57789837.0,-19.442379,0.22971918,-4.0224786,19.85545784334269
57789855.712555066,-16.329205,9.509417,-11.146166,21.938754844144416
57789873.80837005,-5.652049,15.546724,-28.777113,33.1928986026431
57789891.90418502,-3.4553592,2.6465564,-37.90127,38.15036088416865
57789910.0,0.002392908,-12.091365,-47.274292,48.79610432596539
57789927.712555066,-3.9387267,-12.60584,-50.454468,52.15432974630119
57789945.80837005,-22.610588,-11.746786,-35.089603,43.364800353894736
57789963.90418502,-52.55544,6.1832747,-23.735256,57.997151111022646
57789982.0,-77.18325,5.259612,41.583958,87.83019504645773
57790000.712555066,-68.401276,-60.655434,78.40124,120.43492294884459
57790018.80837005,-62.24672,-33.816578,57.511154,91.24553650891752
57790036.90418502,-37.62848,-8.387143,1.6774286,38.58834592880274
57790055.0,-25.249966,-4.893497,-6.3483853,26.491679671312298
57790072.712555066,-17.154758,-5.472581,-6.2072034,19.046370753744572
57790090.80837005,-11.134201,-2.0650797,-17.401228,20.761447974159633
57790108.90418502,-2.8523464,-1.4644598,-30.686653,30.853706338685114
57790127.0,4.508239,-2.8523464,-47.88927,48.185498648448316
57790145.712555066,2.005257,-1.1462029,-49.834705,49.88820160279424
57790163.80837005,-12.546017,0.51926106,-41.433205,43.294141072259954
57790181.90418502,-39.037903,4.97007,-25.405506,46.84121263970805
57790200.0,-63.759037,2.2541194,27.726625,69.5633638298742
57790217.712555066,-61.148373,-39.475803,78.40124,106.97764708844338
57790235.80837005,-51.117302,-35.778763,74.694626,97.32618146649568
57790253.90418502,-35.386326,-17.281582,19.20548,43.81433105995571
57790272.0,-25.663939,-10.198574,9.703242,29.271173224518368
57790289.712555066,-21.696497,-4.7786374,2.163189,22.3215757535486
57790307.80837005,-13.780758,2.1225095,-9.990392,17.15290849814743
57790325.90418502,-8.616862,7.5663753,-28.70054,30.906655305922285
57790344.0,-0.33979294,-0.48576033,-53.019665,53.022978971880676
57790361.712555066,-2.1225095,-3.4433947,-59.24601,59.383934818751094
57790379.80837005,-14.048763,-2.9337053,-43.050808,45.38002245559472
57790397.90418502,-28.777113,5.314649,-24.895815,38.42094911792517
57790416.0,-50.188854,14.077478,1.4046371,52.144697314842055
57790434.712555066,-58.43003,-17.099722,78.40124,99.26340378919002
57790452.80837005,-46.04673,-55.90551,78.40124,106.73556963632414
57790470.90418502,-38.604786,-32.24922,46.00366,68.16654917266824
57790489.0,-33.62993,-20.311005,18.798685,43.55341173368798
57790506.712555066,-27.056612,-5.9009113,0.8805902,27.706613762590113
57790524.80837005,-23.692183,4.979642,-5.3696856,24.79818326403167
57790542.90418502,-18.58093,4.7834234,-17.25526,25.804575112878094
57790561.0,-11.351956,6.45128,-39.205406,41.32250934163089
57790579.712555066,-5.34815,-1.1390243,-50.688972,50.983055687113094
57790597.80837005,-6.0014133,-7.518517,-45.233143,46.24480819654413
57790615.90418502,-12.347405,-1.8162172,-37.59737,39.61463474612003
57790634.0,-26.424885,8.777187,-30.418648,41.23842510382881
57790652.712555066,-52.040966,13.098779,-15.4342575,55.83955997391368
57790670.80837005,-76.96071,-23.122671,78.40124,112.2691552983986
57790688.90418502,-60.59322,-78.40124,78.40124,126.35286770407548
57790707.0,-52.359222,-25.620867,45.761974,74.10853674613774
57790724.712555066,-35.663902,-5.3194346,11.47878,37.84141488657211
57790742.80837005,-23.347605,4.5393467,-9.648206,25.66718151097354
57790760.90418502,-15.544331,6.0803795,-7.217011,18.184677310188988
57790779.0,-14.479486,12.208617,-27.563908,33.44360728314679
57790796.712555066,-10.504867,5.623334,-54.041435,55.33941464112599
57790814.80837005,-12.153581,-10.397185,-58.633427,60.77573322315507
57790832.90418502,-15.053784,-20.141108,-51.210625,57.05093125512453
57790851.0,-25.601725,-11.708499,-40.87087,49.62827103945417
57790868.712555066,-44.35255,17.602232,-31.373419,57.10760617145395
57790886.80837005,-75.35507,38.497105,1.8951832,84.64044770349155
57790904.90418502,-78.32467,-27.298296,78.40124,114.1345930410676
57790923.0,-64.388374,-58.46353,78.40124,117.0922776273584
57790941.712555066,-49.358517,-19.023619,24.690025,58.37601061049886
57790959.80837005,-37.07093,-10.96909,4.7331724,38.94839800891844
57790977.90418502,-22.967133,-2.4814458,-10.208146,25.255752141944665
57790996.0,-18.705362,-0.047858164,-5.5587254,19.513899815964788
57791013.712555066,-16.171272,6.109094,-26.690496,31.799585599891643
57791031.80837005,-9.270126,1.0504867,-50.117065,50.97802431025528
57791049.90418502,-8.183745,-10.098072,-50.107494,51.76587384853312
57791068.0,-14.551274,-18.552216,-44.577484,50.42892397527422
57791085.712555066,-26.99679,-17.654877,-36.06352,48.38490288281696
57791103.80837005,-42.6823,1.9406484,-21.34474,47.76131044234467
57791121.90418502,-54.443443,-0.95955616,22.593838,58.95329294694816
57791140.0,-48.9924,-58.674107,78.40124,109.49730829360624
57791158.712555066,-43.579643,-38.28653,63.26849,85.8367374166123
57791176.80837005,-25.635225,3.8956544,-6.980113,26.852613680936784
57791194.90418502,-5.520439,8.621648,-17.339012,20.135774088044617
57791213.0,6.4728165,2.864311,-17.70752,19.069816346724295
57791231.712555066,3.8430104,13.026992,-5.673585,14.71940271392821
57791249.80837005,0.4091873,7.0734363,5.55394,9.002620999477818
57791267.90418502,-4.0248713,12.914525,16.523031,21.354041734157722
57791286.0,-2.1416528,15.92241,20.24161,25.84245716482757
57791303.712555066,-2.005257,10.725014,18.423,21.41153684199817
57791321.80837005,-2.3665862,6.535032,15.087286,16.61124836756258
57791339.90418502,-3.0772798,-0.7968384,21.62471,21.857096902088863
57791358.0,-5.2141466,6.590069,22.196615,23.734069428761636
57791375.712555066,-2.7518444,5.2476473,6.063629,8.478092146034369
57791393.80837005,-0.5838696,-0.39482984,-1.8927903,2.0197646972191277
57791411.90418502,-0.19861138,-6.0779867,6.513496,8.911060483896312
57791430.0,-0.13639577,-1.2275618,9.978427,10.05457692661517
57791447.712555066,-0.885376,-4.816924,13.943476,14.778605159003607
57791465.80837005,-1.0361292,-2.0411506,13.082028,13.280787479805442
57791483.90418502,0.24646953,-2.010043,9.918604,10.123227025009538
57791502.0,-0.43311638,-1.7994668,7.650127,7.870839451993386
57791520.712555066,-0.27039862,-2.395301,8.664721,8.99377408556274
57791538.80837005,-0.25604117,-1.4166015,9.236626,9.348132260211834
57791556.90418502,-1.1677392,-1.4524952,10.200967,10.369816048528955
57791575.0,-1.1031306,-3.3692145,11.265811,11.81046150475872
57791592.712555066,-1.0289505,-1.0337363,10.126787,10.231283634654888
57791610.80837005,-1.3926725,-1.3519931,10.215324,10.398089558167879
57791628.90418502,-0.6221561,-2.577162,9.279697,9.650990550136303
57791647.0,-0.9284483,-1.6008555,8.743686,8.937382135964041
57791664.712555066,-0.7633377,-2.969599,9.176803,9.675480141359976
57791682.80837005,0.09810923,-3.6396132,11.849681,12.396424866403477
57791700.90418502,-0.30389932,-4.773852,8.597719,9.838840872661851
57791719.0,0.026321989,-4.271341,8.2124605,9.256865249610485
57791737.712555066,-0.3278284,-1.7061435,9.657777,9.812800501598298
57791755.80837005,-0.6532639,-1.1940612,10.653227,10.739822223198932
57791773.90418502,-1.8066456,-0.92605543,10.748943,10.938981789941916
57791792.0,-0.13160995,-2.5651975,10.452223,10.763202359645305
57791810.712555066,0.33979294,-3.926762,8.466109,9.338625201098866
57791828.80837005,0.44747382,-3.5056105,9.69367,10.317789291616476
57791846.90418502,0.650871,-1.7827165,11.246668,11.405667550837927
57791865.0,0.033500712,-0.19861138,9.064336,9.066573547866142
57791882.712555066,1.0217718,1.3878866,8.691042,8.860274142005924
57791900.80837005,2.8930259,-1.1055236,6.6355343,7.322711023569362
57791918.90418502,-0.10289505,-2.8475606,9.456773,9.876727410206069
57791937.0,0.3565433,-2.6704855,12.54841,12.834376083728618
57791954.712555066,2.471874,-1.5745336,8.071279,8.586900594815685
57791972.80837005,1.9238981,-1.9669704,7.085401,7.600872567308359
57791990.90418502,-0.75615895,-1.1653463,11.426136,11.510273335029224
57792009.0,0.37568656,-1.9119335,12.000434,12.157592125422816
57792027.712555066,0.63172776,-1.9502201,10.047821,10.25481083439571
57792045.80837005,0.51208234,-1.5314612,9.447201,9.58421663280032
57792063.90418502,0.6843717,-1.6152129,9.746315,9.90292549781691
57792082.0,1.9885067,-1.2945633,9.052371,9.358176839283002
57792099.712555066,1.1294526,-1.1844895,8.403893,8.561781129339035
57792117.80837005,1.3089207,-1.7228938,8.793938,9.056212342519965
57792135.90418502,0.63651353,-2.474267,10.6269045,10.929695600211486
57792154.0,0.7394086,-2.5388756,10.552725,10.878999003385115
57792171.712555066,0.9571632,-2.3354783,9.313198,9.649159407347831
57792189.80837005,0.8518753,-2.060294,9.212696,9.478621760657088
57792207.90418502,0.49293905,-2.0555081,9.138516,9.379796220517614
57792226.0,0.18425392,-2.21344,10.0837145,10.32543288478239
57792243.712555066,-0.057429794,-2.1464386,9.853995,10.085222570912048
57792261.80837005,-0.6293348,-2.234976,10.004748,10.270645673694085
57792279.90418502,-0.75376606,-1.952613,9.763065,9.98490355462695
57792298.0,-0.8542682,-1.9406484,9.468738,9.70324119470385
57792316.712555066,-1.1366314,-2.4623024,10.196181,10.550685808670103
57792334.80837005,-0.6532639,-2.885847,9.535739,9.984246837221784
57792352.90418502,-0.86623275,-2.1368668,9.016478,9.306633893229002
57792371.0,-1.1414171,-1.8162172,9.906639,10.136220902785675
57792389.712555066,-1.014593,-1.7516087,9.332341,9.5493518384153
57792407.80837005,-1.0122001,-3.4075012,9.954497,10.57012885415549
57792425.90418502,-1.5218896,-2.835596,9.80853,10.322984713284436
57792444.0,-1.4381378,-1.9191123,9.014085,9.327644972822728
57792461.712555066,-1.1629534,-2.0770442,10.160288,10.43542167151233
57792479.80837005,-0.20339718,-2.4048727,8.181353,8.529907386756683
57792497.90418502,-1.3400285,-1.8018597,8.805902,9.087699642533325
57792516.0,-1.7683591,-2.2301903,10.667584,11.040751381940582
57792533.712555066,-1.3160994,-1.5410328,9.17441,9.395568028036209
57792551.80837005,-1.0576653,-1.1222739,8.72215,8.857429379675871
57792569.90418502,-0.18425392,-1.4189945,7.7147355,7.846313703455009
57792588.0,-1.1294526,-1.7348584,10.650834,10.85014570129145
57792606.712555066,-1.4118158,-1.6893932,10.765694,10.98851402779156
57792624.80837005,-1.277813,-1.9215052,8.674292,8.975986296661778
57792642.90418502,-2.1799393,-2.1416528,8.7053995,9.226201413476327
57792661.0,-1.0433079,-5.520439,8.758043,10.405145617278619
57792678.712555066,-0.13400285,-5.886554,8.315355,10.188945163006283
57792696.80837005,-0.1196454,-5.5084743,7.4658732,9.278839732099046
57792714.90418502,-0.37807947,-3.6132913,7.7817373,8.58802966404416
57792733.0,-3.2495692,-1.5171037,9.636241,10.281947492193458
57792750.712555066,-2.4048727,-4.371843,11.538603,12.57122838514452
57792768.80837005,-2.7973096,-6.226347,10.899696,12.86062637879964
57792786.90418502,-1.9095407,-6.9609694,10.189003,12.486681817308465
57792805.0,-2.2589052,-5.3218274,9.236626,10.896777479688836
57792822.712555066,-2.1919038,-4.034443,9.492666,10.54475606053831
57792840.80837005,-3.3740003,-1.4189945,8.004277,8.801469974280394
57792858.90418502,-4.419701,-2.5101607,10.069357,11.279477561601624
57792877.0,-2.4551237,-5.484545,7.9205256,9.94196117572293
57792895.712555066,-0.51926106,-6.271812,6.6833925,9.180032304999399
57792913.80837005,-1.6319634,-5.831517,8.863332,10.734456167056278
57792931.90418502,-2.1009734,-5.001178,6.45128,8.42881274282396
57792950.0,-2.471874,-2.6465564,6.408208,7.3606760301972916
57792968.712555066,-2.495803,-4.5537043,11.371099,12.500685898559665
57792986.80837005,-3.330928,-5.149538,8.612076,10.572638080649691
57793004.90418502,-3.4792883,-4.051193,6.0492716,8.069157247713818
57793023.0,-3.7137933,-2.711165,5.1208234,6.88226042999954
57793040.712555066,-5.199789,-2.8595252,9.425665,11.13812599615308
57793058.80837005,-6.3388133,-3.9770133,17.360548,18.904650636839015
57793076.90418502,-5.654442,-1.0313433,4.618313,7.373275954403707
57793095.0,-5.0945015,-1.0792016,5.204575,7.362487525121507
57793112.712555066,-4.1612673,-3.0007067,11.710893,12.78535885686918
57793130.80837005,-3.8621538,-4.536954,12.225368,13.599992878983226
57793148.90418502,-4.051193,-2.4311945,7.884632,9.191860159701259
57793167.0,-4.2785196,-1.74443,5.5515466,7.222772019415795
57793185.712555066,-3.8501892,-3.6037195,9.246197,10.644383968707908
57793203.80837005,-3.3404996,-2.0961876,10.648441,11.355273478101482
57793221.90418502,-2.2708697,-1.8545038,10.241647,10.65304495490381
57793240.0,-2.471874,-1.9550059,7.7434506,8.360217481354846
57793257.712555066,-2.41923,-2.7374868,7.5568037,8.393556453221002
57793275.80837005,-0.9021264,-3.228033,8.329713,8.978760925263295
57793293.90418502,-2.6968074,-3.1658175,11.959755,12.662184260862183
57793312.0,-1.8568966,-2.163189,7.9277043,8.424722375310123
57793329.712555066,-2.1033661,-2.7901309,8.918368,9.578427176378595
57793347.80837005,-1.797074,-3.1849606,8.98537,9.70104752188795
57793365.90418502,-1.4189945,-4.1780176,9.56924,10.53753911663155
57793384.0,-2.1177237,-3.646792,10.090894,10.936635098605132
57793402.712555066,-2.7231295,-3.802331,8.808294,9.972923267415991
57793420.80837005,-4.000942,-3.3141778,10.500081,11.715076285877862
57793438.90418502,-4.170839,-3.3213565,12.878632,13.938668127028393
57793457.0,-3.0748868,-2.8164527,7.159581,8.285344575798435
57793474.712555066,-2.4048727,-3.5319324,8.466109,9.48329904522978
57793492.80837005,-2.5723763,-2.940884,8.978191,9.79151837881841
57793510.90418502,-2.5819478,-2.3761578,7.4084435,8.197415167302308
57793529.0,-2.7733805,-2.5939124,7.2146177,8.15295832773646
57793546.712555066,-2.6872358,-3.7472942,8.619255,9.775224131506157
57793564.80837005,-2.5388756,-3.905226,8.420644,9.623093307148556
57793582.90418502,-2.7973096,-4.0176926,8.174174,9.528059372643673
57793601.0,-3.6778998,-2.9002047,8.145459,9.396096879099488
57793619.712555066,-3.4816813,-2.7709875,8.1119585,9.252261729201578
57793637.80837005,-3.5630403,-5.5802617,12.390478,14.048434855470378
57793655.90418502,-4.182803,-7.2816195,14.6398115,16.877259974152246
57793674.0,-5.577869,-6.45128,12.94324,15.500293478420367
57793692.712555066,-8.059315,-1.8090385,15.005927,17.1290111709064
57793710.80837005,-5.3960075,-2.7374868,15.982233,17.089251083254627
57793728.90418502,-2.495803,-7.7889156,17.331833,19.16477690917954
57793747.0,-3.4721096,-8.34407,23.840544,25.496089650282613
57793764.712555066,-4.55849,-6.276598,28.104706,29.15561717542848
57793782.80837005,-5.4510446,-0.13160995,24.603882,25.200837642428716
57793800.90418502,-5.4247227,-1.6630712,20.495258,21.266147339721144
57793819.0,-6.1378093,-1.2586696,15.261968,16.498018650679075
57793836.712555066,-9.061943,1.4453164,10.744158,14.129567635293089
57793854.80837005,-10.052607,2.5221252,6.2239537,12.089401254018652
57793872.90418502,-10.526402,7.7267003,-8.47568,15.567407878449902
57793891.0,-16.140165,11.686963,-51.028767,54.78161271750662
57793908.712555066,-5.826731,2.967206,-75.97483,76.25568765096605
57793926.80837005,-28.188457,10.914054,-47.11875,55.98108863105705
57793944.90418502,-48.791397,1.9956853,-26.47035,55.545140292835214
57793963.0,-77.23589,2.2708697,-3.2734983,77.33857604330831
57793981.712555066,-77.51586,-27.659624,45.72608,94.15220519736846
57793999.80837005,-47.22404,-78.40124,78.40124,120.51397769967102
57794017.90418502,-48.86797,-67.94184,78.40124,114.67748928209102
57794036.0,-66.33141,-17.721878,27.114042,73.81796655295206
57794053.712555066,-57.037357,2.1703677,6.6355343,57.46303946838462
57794071.80837005,-24.053513,6.427351,-18.430178,30.97666524385822
57794089.90418502,-10.2344675,14.953282,-10.14593,20.767399046220984
57794108.0,-17.647697,23.381105,-17.063828,33.901202138543965
57794125.712555066,-22.629732,10.397185,-56.211803,61.48148520348917
57794143.80837005,-25.922373,-24.95803,-78.36774,86.23442094743622
57794161.90418502,-31.849607,-9.98082,-56.807636,65.88718951234257
57794180.0,-29.083405,14.965247,-35.55383,48.31022554112052
57794198.712555066,-42.12236,45.55858,-26.999182,67.66707657535623
57794216.80837005,-75.22824,41.138874,11.004984,86.44538576653893
57794234.90418502,-78.32467,-1.1844895,78.40124,110.82829683579058
57794253.0,-76.41752,-32.35451,78.40124,114.16306808170539
57794271.712555066,-65.55372,-8.518753,37.006325,75.75834903506697
57794289.80837005,-45.572933,4.4723454,3.776009,45.94727782543239
57794307.90418502,-25.254751,6.65707,-3.464931,26.346247852240023
57794326.0,-22.986275,10.263183,2.3618002,25.283984334986325
57794343.712555066,-29.724705,20.29904,-16.190416,39.46819836921469
57794361.80837005,-30.382753,6.152167,-52.017036,60.553553759298005
57794379.90418502,-26.271738,-15.336148,-78.1452,83.85746201775098
57794398.0,-35.666294,-18.123886,-59.39437,71.61180740026279
57794415.712555066,-38.3296,19.75585,-33.797436,54.78794142470217
57794433.80837005,-43.390602,54.22569,-20.77762,72.49054621647505
57794451.90418502,-78.32467,44.47459,53.639427,104.83287277932112
57794470.0,-72.58408,-42.476513,78.40124,114.9758986032428
57794487.712555066,-78.32467,-30.732119,78.40124,115.00422384580777
57794505.80837005,-72.34718,2.861918,24.64456,76.48306587856375
57794523.90418502,-43.37385,25.156643,-14.455558,52.183433270946374
57794542.0,-8.815474,18.138243,-18.647932,27.46732256424621
57794560.712555066,-16.87718,22.536407,-19.844387,34.44602358223396
57794578.80837005,-30.571795,6.7551794,-59.93517,67.62020187175656
57794596.90418502,-34.79049,-21.10545,-74.38594,84.78847966455231
57794615.0,-37.15229,-16.779072,-51.418808,65.61801372768112
57794632.712555066,-35.96541,33.656254,-36.51099,61.31318406803479
57794650.80837005,-39.226944,60.258213,-26.570852,76.6538684316611
57794668.90418502,-78.32467,50.10271,41.1317,101.67031142296653
57794687.0,-78.32467,-48.3511,78.40124,120.91045130738905
57794704.712555066,-78.32467,-46.05391,78.40124,120.01029535183471
57794722.80837005,-67.90116,7.599876,12.301941,69.42379561021176
57794740.90418502,-39.296337,23.876436,-5.0825367,46.26141455885792
57794759.0,-17.973133,23.852509,-1.6558924,29.91183169033865
57794777.712555066,-23.218388,36.941715,-9.277305,44.60775982407987
57794795.80837005,-32.507656,21.64146,-58.530533,70.36280112964538
57794813.90418502,-38.8704,-10.679549,-78.36774,88.12754073336552
57794832.0,-59.86338,-32.423904,-71.131584,98.46134296247777
57794850.712555066,-53.86915,18.509144,-31.557673,65.11805017435768
57794868.80837005,-47.40351,74.84538,-18.248318,90.45399260117613
57794886.90418502,-78.32467,55.52743,45.42936,106.21617655999204
57794905.0,-78.32467,-64.19694,78.40124,128.07324259778113
57794922.712555066,-78.32467,-51.311127,78.40124,122.12428144376788
57794940.80837005,-65.570465,-3.8310459,8.0306,66.17139358789515
57794958.90418502,-36.843605,14.89346,-2.1512244,39.79816762850747
57794977.0,-15.15668,19.669704,2.8810613,24.998454317904812
57794994.712555066,-8.339285,22.84988,-6.7480006,25.2427455405157
57795012.80837005,-13.134672,25.149464,-38.77947,48.05062373701074
57795030.90418502,-13.57736,9.011692,-68.922935,70.82320429270824
57795049.0,-27.568695,-18.731684,-78.36774,85.16109206783624
57795067.712555066,-46.08023,-12.469444,-51.65571,70.33624247943685
57795085.80837005,-63.742287,36.384167,-20.8518,76.29996280152604
57795103.90418502,-78.32467,49.44466,6.1545596,92.82998942687892
57795122.0,-78.32467,-27.64766,78.40124,114.21865639037301
57795139.712555066,-78.32467,-78.40124,78.40124,135.75073774268816
57795157.80837005,-78.32467,-15.407935,-6.3651357,80.07916922678793
57795175.90418502,-39.38248,5.2572193,4.2737336,39.96101706166225
57795194.0,-20.935553,20.928373,-5.809981,30.167035901183578
57795211.712555066,-1.8138243,28.925472,-3.512789,29.194392878985777
57795229.80837005,-21.445242,23.462463,-3.43143,31.971241550960027
57795247.90418502,-32.562695,10.394793,-60.655434,69.62372082059555
57795266.0,-31.165236,-29.514128,-78.36774,89.35243902235506
57795283.712555066,-46.743065,-5.1471453,-69.02104,83.51832848551949
57795301.80837005,-53.524567,46.733494,-13.701792,72.36461730705683
57795319.90418502,-78.30553,42.208508,36.78857,96.2637681519473
57795338.0,-64.39794,-54.814346,78.40124,115.31895610518211
57795356.712555066,-71.30627,-41.06948,78.40124,113.65755919568615
57795374.80837005,-57.628407,-15.367256,20.748905,63.14826133019191
57795392.90418502,-42.340115,1.2060257,0.99305683,42.36892727070034
57795411.0,-28.300924,20.983412,1.4189945,35.259884058325405
57795429.712555066,-25.888872,28.142992,-12.768558,40.314981899336274
57795447.80837005,-35.312145,16.633104,-46.527706,60.73248849502445
57795465.90418502,-32.689518,-9.114587,-78.36774,85.40013440247323
57795484.0,-41.263306,-30.8398,-78.36774,93.78302809569136
57795501.712555066,-60.03567,4.1995535,-46.865105,76.27749332935167
57795519.80837005,-78.0782,57.989735,-21.241846,99.55014164780451
57795537.90418502,-78.32467,52.6033,21.141342,96.68928297934505
57795556.0,-78.32467,-77.35793,78.40124,135.1508701342
57795573.712555066,-78.32467,-78.40124,78.40124,135.75073774268816
57795591.80837005,-62.13425,-2.1679747,-14.615883,63.86696464708519
57795609.90418502,-38.76272,2.5651975,-10.866196,40.33860329167115
57795628.0,-18.83458,6.3148847,-15.123179,24.96657196366243
57795646.712555066,-16.956146,4.0248713,-12.718307,21.574656639240605
57795664.80837005,-17.243296,-2.7805593,-26.35549,31.61763147524704
57795682.90418502,-14.570417,-8.518753,-51.67246,54.359077684233185
57795701.0,-19.830029,-7.2265825,-58.334312,62.035034466690604
57795718.712555066,-20.090857,-1.6463208,-34.737846,40.16305331882373
57795736.80837005,-18.81065,8.205282,-9.478309,22.60543181674495
57795754.90418502,-16.922646,-1.7635733,13.917153,21.981203016468363
57795773.0,-21.363884,-11.837716,35.115925,42.77470336855343
57795790.712555066,-23.464857,-4.1732316,44.68038,50.63942863976733
57795808.80837005,-17.843916,-2.21344,52.87609,55.84966918914342
57795826.90418502,-12.249296,-2.6489491,42.538727,44.34642577041058
57795845.0,-8.813081,-8.542682,27.092505,29.743093982313102
57795862.712555066,-4.524989,-10.445044,20.53115,23.475574325978844
57795880.80837005,-9.614705,-22.742199,22.766129,33.58491919354976
57795898.90418502,-20.473722,-23.29496,11.493137,33.0744713039476
57795917.0,-18.92551,-2.6489491,-6.9107184,20.32116849245115
57795935.712555066,-9.652991,12.397656,-18.93269,24.603431878022974
57795953.80837005,-1.0433079,15.465365,-13.819044,20.766125855136373
57795971.90418502,1.1246668,13.1514225,2.627413,13.458383567765392
57795990.0,1.1653463,14.563239,8.583362,16.94461759359262
57796008.712555066,1.9597918,13.462501,4.8312817,14.43679327063677
57796026.80837005,-2.5173392,11.696535,8.099994,14.448385046575885
57796044.90418502,2.21344,11.036092,10.5862255,15.45195177325228
57796063.0,-1.5218896,12.88581,5.7429795,14.189505306673253
57796080.712555066,-1.4931747,3.95787,7.887025,8.949830667238631
57796098.80837005,-1.5721406,-2.5867336,12.431157,12.794392566362278
57796116.90418502,-1.0504867,-4.5106316,12.19426,13.044128820484541
57796135.0,-2.8427749,-2.2230117,8.17896,8.939716820571382
57796153.712555066,-2.9313123,-4.450809,3.1562457,6.193882423277082
57796171.80837005,-2.8762755,-17.389263,23.201637,29.137182223317996
57796189.90418502,-2.3570144,-10.2847185,18.939867,21.680625301954244
57796208.0,-2.6513422,-0.93802,6.0851655,6.703636039067984
57796225.712555066,-4.4412374,-0.5001178,-0.98827106,4.5772685244662155
57796243.80837005,-2.6130557,-3.7472942,4.419701,6.356416509485287
57796261.90418502,-2.5412683,-3.3500714,12.328262,13.025631151630497
57796280.0,-4.0464077,-6.046879,11.136594,13.302702238120506
57796297.712555066,-3.8932614,-6.2622404,5.7740874,9.365533858726948
57796315.80837005,-5.4510446,-5.068179,11.316062,13.544503859317777
57796333.90418502,-4.9963923,-2.8212388,8.513967,10.266983902744453
57796352.0,-4.661385,-2.8738825,8.049743,9.73581394173493
57796369.712555066,-28.784292,-35.187714,56.649708,72.63539150422694
57796387.80837005,-0.51926106,-0.3326142,1.4764243,1.600029052268881
57796405.90418502,-2.9791706,-8.0641,12.22776,14.947350296674804
57796424.0,-8.640791,-3.0389934,8.923154,12.787549698774999
57796442.712555066,-6.4680305,-3.9004402,8.820259,11.612313341009504
57796460.80837005,-6.7575727,-4.730779,1.2108115,8.337333100647866
57796478.90418502,-1.8616825,-4.97007,-3.0844586,6.138513043956183
57796497.0,-11.576889,-9.889889,6.381886,16.50947401547481
57796515.712555066,-2.5364826,-5.2955055,11.12463,12.579090393090153
57796533.80837005,-6.690571,-0.40679437,21.366276,22.393011679398565
57796551.90418502,-3.048565,-5.130395,17.092543,18.10441182756565
57796570.0,1.0648441,-0.39482984,4.493881,4.635164506467945
57796587.712555066,-4.6518135,-8.841795,20.523973,22.82652350590287
57796605.80837005,-11.10788,-20.564651,37.197758,43.93134494950917
57796623.90418502,-1.0433079,-1.8736471,7.896597,8.182621157670066
57796642.0,-0.33500713,-2.9289196,3.275891,4.40706950754081
57796659.712555066,1.2921704,7.1404376,-13.974584,15.746255155915197
57796677.80837005,0.7968384,1.1725249,1.4955676,2.0607009785517962
57796695.90418502,-0.61497736,-0.28475606,-0.014357449,0.6778564032013571
57796714.0,-2.5412683,1.7563945,-6.2095966,6.935564587468471
57796732.712555066,-6.3914576,2.8212388,-12.586697,14.395661151507845
57796750.80837005,-3.6755068,-19.760635,27.79602,34.301760504097615
57796768.90418502,-0.019143265,-0.08375178,-0.052643977,0.10075819352491962
57796787.0,-1.5123179,-1.0169859,14.809709,14.921422399226563
57796804.712555066,13.9458685,0.2943277,-12.139223,18.491474036917893
57796822.80837005,0.019143265,-0.2943277,0.30389932,0.42349741000224855
57796840.90418502,1.9932925,-0.14118157,-2.4000869,3.1230697004414623
57796859.0,-0.07418015,-3.4792883,16.314848,16.681882838345164
57796876.712555066,0.06221561,-2.2014754,9.60274,9.85205461954677
57796894.80837005,0.0071787243,-2.1775463,9.662563,9.904891879858924
57796912.90418502,-0.0071787243,-2.1703677,9.597955,9.840289003342884
57796931.0,0.011964541,-2.1919038,9.655384,9.901061842355686
57796948.712555066,0.004785816,-2.2421548,9.688885,9.94493708348237
57796966.80837005,0.031107806,-2.1966896,9.708028,9.953502928272354
57796984.90418502,0.004785816,-2.2230117,9.56206,9.817066535680182
57797003.0,-0.021536173,-2.3139422,9.863567,10.13137435273109
57797021.712555066,-0.15553902,-2.108152,9.56206,9.792930546340385
57797039.80837005,-0.031107806,-2.084223,9.767851,9.987785859114329
57797057.90418502,0.014357449,-2.134474,9.576418,9.81142023887173
57797076.0,0.10289505,-2.2469406,9.650599,9.90925781832544
57797093.712555066,0.069394335,-2.3067634,9.638634,9.911066458422406
57797111.80837005,-0.004785816,-2.2612982,9.686492,9.946940218952863
57797129.90418502,-0.045465253,-2.1703677,9.724778,9.964129173777188
57797148.0,-0.021536173,-2.1919038,9.724778,9.968761870186585
57797166.712555066,0.033500712,-2.165582,9.667349,9.906992701331193
57797184.80837005,0.07418015,-2.239762,9.652991,9.909705936978101
57797202.90418502,0.07418015,-2.21344,9.636241,9.887464788222259
57797221.0,0.03828653,-2.1990826,9.518989,9.76977900067976
