timestamp,accel_x,accel_y,accel_z,magnitude
242723.82249365482,-2.2277975,0.12203831,9.6410265,9.895825737340779
242726.13356598985,-2.1249025,0.11485959,9.636241,9.868411420791201
242728.44463832487,-2.0555081,0.110073775,9.645813,9.863008578323218
242730.7557106599,-2.060294,0.1172525,9.669742,9.887490574547023
242733.06678299492,-2.084223,0.13160995,9.669742,9.892685026787824
242735.37785532995,-2.1153307,0.18903974,9.636241,9.86749718032606
242737.68892766497,-2.110545,0.22014755,9.6410265,9.871790978059567
242740.0,-2.1201165,0.21536173,9.753493,9.9835815391757
242741.82249365482,-2.1464386,0.13878867,9.777423,10.011216783159744
242744.13356598985,-2.1703677,0.17946811,9.719993,9.960972275624467
242746.44463832487,-2.1751535,0.24646953,9.746315,9.989128893802786
242748.7557106599,-2.1990826,0.25364825,9.794173,10.04122136347366
242751.06678299492,-2.234976,0.25125536,9.806137,10.060744000285155
242753.37785532995,-2.2780485,0.27039862,9.724778,9.991692926192947
242755.68892766497,-2.2732627,0.27757734,9.7176,9.983813011214341
242758.0,-2.2732627,0.2368979,9.731957,9.996741017355841
242760.82249365482,-2.21344,0.208183,9.722385,9.973335795174751
242763.13356598985,-2.2110472,0.21536173,9.703242,9.954296344088839
242765.44463832487,-2.1990826,0.2584341,9.645813,9.896689390732366
242767.7557106599,-2.2086542,0.25604117,9.6912775,9.943066430328164
242770.06678299492,-2.2062612,0.2632199,9.7415285,9.991709098782534
242772.37785532995,-2.1799393,0.2057901,9.743921,9.986915508363104
242774.68892766497,-2.1727605,0.19143265,9.69367,9.936034053823802
242777.0,-2.134474,0.22971918,9.698457,9.933217924680042
242778.82249365482,-2.1440456,0.28236315,9.698457,9.93663568136652
242781.13356598985,-2.1536174,0.31586388,9.719993,9.960727976223446
242783.44463832487,-2.108152,0.30868515,9.6912775,9.922723968696337
242785.7557106599,-2.1225095,0.25604117,9.686492,9.919613446318824
242788.06678299492,-2.1464386,0.22732627,9.664956,9.903042480901416
242790.37785532995,-2.2277975,0.16989647,9.612311,9.868559635136513
242792.68892766497,-2.2565124,0.16032484,9.578811,9.842315400320993
242795.0,-2.266084,0.14357449,9.576418,9.841927252319984
242797.82249365482,-2.2708697,0.16750357,9.588383,9.8550492233692
242800.13356598985,-2.2732627,0.17707519,9.629062,9.895348095239946
242802.44463832487,-2.2565124,0.17468229,9.645813,9.907778285002264
242804.7557106599,-2.239762,0.22971918,9.638634,9.898109420705545
242807.06678299492,-2.2110472,0.2967206,9.655384,9.909753428948079
242809.37785532995,-2.187118,0.2967206,9.652991,9.902109043353812
242811.68892766497,-2.2038684,0.31586388,9.674527,9.927400394309489
242814.0,-2.2182257,0.34697166,9.645813,9.903667150099132
242815.82249365482,-2.215833,0.36611494,9.638634,9.896828856716489
242818.13356598985,-2.1799393,0.36611494,9.652991,9.902848617799663
242820.44463832487,-2.1488314,0.36372203,9.696064,9.937979029603015
242822.7557106599,-2.1009734,0.42354473,9.710421,9.944131704832722
242825.06678299492,-2.0914016,0.5001178,9.664956,9.901285418989568
242827.37785532995,-2.110545,0.48576033,9.67692,9.916306972942433
242829.68892766497,-2.1799393,0.45465255,9.669742,9.92284004907214
242832.0,-2.237369,0.4115802,9.674527,9.938394788743402
242833.82249365482,-2.266084,0.40440148,9.631455,9.90270683546207
242836.13356598985,-2.3139422,0.42593765,9.595561,9.879804769900534
242838.44463832487,-2.3570144,0.45465255,9.6003475,9.89590308884364
242840.7557106599,-2.4000869,0.47618872,9.578811,9.88639433758981
242843.06678299492,-2.41923,0.47140288,9.588383,9.900100152163175
242845.37785532995,-2.3857293,0.4737958,9.571632,9.87584557880489
242847.68892766497,-2.421623,0.46901,9.56924,9.882033318696562
242850.0,-2.424016,0.4450809,9.552489,9.86529252840086
242852.82249365482,-2.4575167,0.45225963,9.490273,9.813725526946207
242855.13356598985,-2.452731,0.4139731,9.485488,9.806209547222036
242857.44463832487,-2.4407663,0.3613291,9.504631,9.819669510522413
242859.7557106599,-2.450338,0.2943277,9.514202,9.829080567684613
242862.06678299492,-2.4479449,0.2919348,9.523774,9.83767916553305
242864.37785532995,-2.4359803,0.34457877,9.518989,9.831779398096959
242866.68892766497,-2.395301,0.3828653,9.52856,9.83247214042049
242869.0,-2.371372,0.34218585,9.52856,9.825169311107276
242870.82249365482,-2.392908,0.31107804,9.514202,9.815437735538758
242873.13356598985,-2.371372,0.31825677,9.485488,9.78259552123969
242875.44463832487,-2.3474429,0.30150643,9.4998455,9.7902226134017
242877.7557106599,-2.3354783,0.27757734,9.523774,9.80988171552177
242880.06678299492,-2.3546216,0.2656128,9.54531,9.835025980383094
242882.37785532995,-2.3091564,0.28714898,9.56206,9.841120325449538
242884.68892766497,-2.340264,0.28236315,9.564454,9.850652001582937
242887.0,-2.318728,0.2943277,9.538132,9.820340644926493
242889.82249365482,-2.263691,0.32064968,9.588383,9.857190356052485
242892.13356598985,-2.234976,0.3517575,9.617098,9.87964700791411
242894.44463832487,-2.2086542,0.3326142,9.6003475,9.85674681129507
242896.7557106599,-2.1775463,0.30629224,9.633848,9.881626896014234
242899.06678299492,-2.2230117,0.27279153,9.636241,9.893095412824929
242901.37785532995,-2.2301903,0.2656128,9.609919,9.8688825162882
242903.68892766497,-2.2517266,0.27279153,9.60274,9.866980460484724
242906.0,-2.2612982,0.2919348,9.605133,9.87204514902881
242907.82249365482,-2.263691,0.27757734,9.621883,9.888477061148066
242910.13356598985,-2.2445478,0.24168372,9.633848,9.894818499300627
242912.44463832487,-2.2110472,0.22732627,9.657777,9.910250427481081
242914.7557106599,-2.1536174,0.2392908,9.633848,9.874530635916393
242917.06678299492,-2.1177237,0.21536173,9.648206,9.880233467015154
242919.37785532995,-2.0483294,0.18903974,9.70085,9.916545773438635
242921.68892766497,-2.0220072,0.18664683,9.719993,9.92983454424342
242924.0,-1.9837208,0.17468229,9.679314,9.882043393215206
242926.82249365482,-1.9382555,0.12203831,9.664956,9.85814902577172
242929.13356598985,-1.9669704,0.107680865,9.679314,9.877736949006048
242931.44463832487,-2.0028641,0.0598227,9.684099,9.889227310579178
242933.7557106599,-2.0339718,0.08614469,9.70085,9.912161868800894
242936.06678299492,-2.110545,0.13639577,9.657777,9.886640510548965
242938.37785532995,-2.1272953,0.18664683,9.617098,9.851334745817702
242940.68892766497,-2.1584032,0.21057591,9.593168,9.835238627703275
242943.0,-2.184725,0.2392908,9.597955,9.846371087594386
242944.82249365482,-2.2110472,0.25364825,9.56924,9.82463339432856
242947.13356598985,-2.237369,0.2656128,9.609919,9.870507250807622
242949.44463832487,-2.21344,0.25604117,9.5907755,9.846209849771395
242951.7557106599,-2.1919038,0.24646953,9.6003475,9.850475197594738
242954.06678299492,-2.2230117,0.21057591,9.60274,9.858942070009807
242956.37785532995,-2.1942968,0.16271774,9.6410265,9.888923474428509
242958.68892766497,-2.2014754,0.13639577,9.614705,9.864463998611585
242961.0,-2.2086542,0.13400285,9.636241,9.887024362722425
242963.82249365482,-2.2062612,0.11246668,9.650599,9.900217083253107
242966.13356598985,-2.2325833,0.107680865,9.679314,9.934039604849684
242968.44463832487,-2.2589052,0.08614469,9.629062,9.890849741556396
242970.7557106599,-2.2493336,0.08614469,9.631455,9.89099833023589
242973.06678299492,-2.2325833,0.071787246,9.619491,9.875433595503955
242975.37785532995,-2.2062612,0.10289505,9.66017,9.909442986507363
242977.68892766497,-2.1464386,0.09093051,9.679314,9.91486694473581
242980.0,-2.0985804,0.023929082,9.686492,9.911243088649048
242982.82249365482,-2.1296883,0.009571632,9.664956,9.896819607996907
242985.13356598985,-2.110545,0.07657306,9.688885,9.916388262556474
242987.44463832487,-2.0555081,0.09810923,9.708028,9.923736525067602
242989.7557106599,-2.031579,0.09810923,9.708028,9.918807705719281
242992.06678299492,-2.0722585,0.08135887,9.7176,9.936429153199349
242994.37785532995,-2.0914016,0.026321989,9.727171,9.949497935214042
242996.68892766497,-2.187118,0.0071787243,9.722385,9.965355325738845
242999.0,-2.1823323,0.08135887,9.703242,9.945958920280887
243000.82249365482,-2.1823323,0.13160995,9.650599,9.895148129531123
243003.13356598985,-2.1775463,0.26082698,9.6410265,9.88732170892815
243005.44463832487,-2.2301903,0.34697166,9.643419,9.904022824924136
243007.7557106599,-2.2493336,0.40440148,9.638634,9.905872378900868
243010.06678299492,-2.2971919,0.43550926,9.636241,9.915840839336438
243012.37785532995,-2.2924058,0.43072346,9.617098,9.895919411175093
243014.68892766497,-2.2947989,0.47140288,9.609919,9.891353085057398
243017.0,-2.290013,0.5360114,9.583597,9.867968343053597
243019.82249365482,-2.290013,0.54797596,9.581204,9.866301601031813
243022.13356598985,-2.3043704,0.5168682,9.614705,9.900496346829911
243024.44463832487,-2.2947989,0.5001178,9.6410265,9.922984015860365
243026.7557106599,-2.2756555,0.46183127,9.636241,9.912065207952935
243029.06678299492,-2.28762,0.4498667,9.679314,9.956139052000273
243031.37785532995,-2.268477,0.43311638,9.710421,9.98127515377641
243033.68892766497,-2.3019776,0.4450809,9.770244,10.047629854745972
243036.0,-2.3474429,0.45943835,9.765458,10.054140525971135
243037.82249365482,-2.3306925,0.43311638,9.703242,9.988624662021522
243040.13356598985,-2.316335,0.4498667,9.664956,9.948827185248012
243042.44463832487,-2.2924058,0.48576033,9.667349,9.947297328313674
243044.7557106599,-2.2947989,0.5025107,9.684099,9.964958225544986
243047.06678299492,-2.316335,0.5168682,9.69367,9.97996987156255
243049.37785532995,-2.3067634,0.5240469,9.667349,9.952558426092267
243051.68892766497,-2.290013,0.54079723,9.648206,9.930986869520103
243054.0,-2.2732627,0.5240469,9.648206,9.926239342019056
243056.82249365482,-2.2469406,0.50968945,9.686492,9.956739057614879
243059.13356598985,-2.2469406,0.46422416,9.712814,9.980130356325615
243061.44463832487,-2.2230117,0.4115802,9.667349,9.928182913664006
243063.7557106599,-2.187118,0.36850783,9.667349,9.91851399426831
243066.06678299492,-2.1727605,0.3613291,9.643419,9.891763084426762
243068.37785532995,-2.1512244,0.34218585,9.636241,9.879372357856372
243070.68892766497,-2.1368668,0.2919348,9.633848,9.872307376469662
243073.0,-2.1440456,0.27039862,9.617098,9.85690726801167
243074.82249365482,-2.1512244,0.22493336,9.595561,9.836318027611615
243077.13356598985,-2.2014754,0.20100428,9.566847,9.818933657928056
243079.44463832487,-2.2110472,0.21296883,9.578811,9.832990675115095
243081.7557106599,-2.2014754,0.22014755,9.581204,9.833332546506915
243084.06678299492,-2.1966896,0.208183,9.564454,9.8156795831136
243086.37785532995,-2.1919038,0.2368979,9.58599,9.83624761601592
243088.68892766497,-2.1727605,0.23211208,9.607526,9.852883844272101
243091.0,-2.1249025,0.2392908,9.626669,9.861299445662924
243092.82249365482,-2.160796,0.26082698,9.626669,9.869641640032981
243095.13356598985,-2.1488314,0.2584341,9.645813,9.88564479437926
243097.44463832487,-2.1679747,0.2392908,9.650599,9.894010079113814
243099.7557106599,-2.1512244,0.26082698,9.655384,9.89556654871803
243102.06678299492,-2.1990826,0.24886245,9.638634,9.889447011162897
243104.37785532995,-2.1919038,0.22014755,9.621883,9.870842906151148
243106.68892766497,-2.237369,0.22254045,9.617098,9.876432464997228
243109.0,-2.2206187,0.208183,9.629062,9.883993250307423
243110.82249365482,-2.239762,0.2392908,9.648206,9.907657287272539
243113.13356598985,-2.2254045,0.31586388,9.626669,9.885593113964882
243115.44463832487,-2.2062612,0.34697166,9.626669,9.882344552333196
243117.7557106599,-2.0244002,0.33740005,9.56206,9.77982752440451
243120.06678299492,-2.1703677,0.37568656,9.669742,9.917436497963166
243122.37785532995,-2.2732627,0.3278284,9.775029,10.04123432222846
243124.68892766497,-2.2301903,0.34218585,9.731957,9.990086435061677
243127.0,-2.1368668,0.33500713,9.722385,9.960080300194274
243129.82249365482,-2.0914016,0.30150643,9.743921,9.970399351784005
243132.13356598985,-2.0746512,0.22254045,9.786994,10.006945258648297
243134.44463832487,-2.0937946,0.18425392,9.80853,10.031210599669638
243136.7557106599,-2.1464386,0.18186101,9.731957,9.96751017759085
243139.06678299492,-2.132081,0.19861138,9.70085,9.934369964588923
243141.37785532995,-2.108152,0.21775463,9.6912775,9.920311563453875
243143.68892766497,-1.9861137,0.208183,9.595561,9.801162109440783
243146.0,-2.2780485,0.20100428,9.779816,10.043640210739659
243148.82249365482,-2.290013,0.14118157,9.724778,9.99176655677867
243151.13356598985,-2.2756555,0.12921704,9.645813,9.91145869330421
243153.44463832487,-2.2517266,0.14118157,9.619491,9.88052690983311
243155.7557106599,-2.2086542,0.18186101,9.607526,9.859806420149022
243158.06678299492,-2.1536174,0.22254045,9.655384,9.895151961689368
243160.37785532995,-2.2230117,0.23211208,9.662563,9.917700376850867
243162.68892766497,-2.2062612,0.19143265,9.664956,9.91542280611611
243165.0,-2.1919038,0.16271774,9.674527,9.921058008352443
243166.82249365482,-2.1703677,0.1483603,9.631455,9.874078800011898
243169.13356598985,-2.1488314,0.13639577,9.674527,9.911233670206189
243171.44463832487,-2.163189,0.16032484,9.648206,9.889032800151794
243173.7557106599,-2.1942968,0.22014755,9.619491,9.869043038174585
243176.06678299492,-2.215833,0.24168372,9.614705,9.869694987254016
243178.37785532995,-2.2469406,0.23211208,9.664956,9.925421530572205
243180.68892766497,-2.2110472,0.18903974,9.672134,9.923439013662708
243183.0,-2.2038684,0.19382556,9.607526,9.85896344008354
243185.82249365482,-2.4264088,0.27997026,9.724778,10.026821538278515
243188.13356598985,-2.395301,0.30629224,9.626669,9.924920042622318
243190.44463832487,-2.3450499,0.3278284,9.571632,9.860165801687138
243192.7557106599,-2.2541194,0.41875893,9.533346,9.805156769099977
243195.06678299492,-2.2589052,0.54079723,9.518989,9.798278722749405
243197.37785532995,-2.3019776,0.5168682,9.593168,9.879024541081828
243199.68892766497,-2.3450499,0.40679437,9.631455,9.921172617688834
243202.0,-2.3139422,0.34936458,9.588383,9.869826374834991
243203.82249365482,-2.2780485,0.33740005,9.552489,9.8261584486112
243206.13356598985,-2.2469406,0.3517575,9.588383,9.854418498999504
243208.44463832487,-2.2732627,0.39004403,9.631455,9.903776202316717
243210.7557106599,-2.2301903,0.35415038,9.648206,9.908937898902396
243213.06678299492,-2.1033661,0.36372203,9.552489,9.788078910637037
243215.37785532995,-2.2301903,0.42115182,9.710421,9.97213084686239
243217.68892766497,-2.2947989,0.39243692,9.796566,10.069399888770747
243220.0,-2.3522286,0.31825677,9.743921,10.028871482502396
243222.82249365482,-2.3881223,0.2656128,9.631455,9.926661256248554
243225.13356598985,-2.4024796,0.18186101,9.581204,9.87949653297122
243227.44463832487,-2.342657,0.23211208,9.5405245,9.826674186744524
243229.7557106599,-2.2995846,0.30150643,9.557275,9.834658147872426
243232.06678299492,-2.239762,0.33740005,9.564454,9.828995519812795
243234.37785532995,-2.2301903,0.33740005,9.559668,9.822160650191897
243236.68892766497,-2.237369,0.31347096,9.60274,9.864922685582707
243239.0,-2.237369,0.2656128,9.652991,9.912446995962492
243240.82249365482,-2.2230117,0.12921704,9.66017,9.913493959783466
243243.13356598985,-2.1584032,0.1172525,9.650599,9.889717568329617
243245.44463832487,-2.112938,0.16032484,9.662563,9.892185540876902
243247.7557106599,-2.1440456,0.16750357,9.736743,9.971416811511347
243250.06678299492,-2.2182257,0.17707519,9.729565,9.98079736134739
243252.37785532995,-2.2277975,0.21775463,9.69367,9.948755542719535
243254.68892766497,-2.1919038,0.25604117,9.638634,9.88803644487344
243257.0,-2.187118,0.25604117,9.669742,9.917305711392734
243259.82249365482,-2.239762,0.21296883,9.710421,9.967655970008023
243262.13356598985,-2.3091564,0.1172525,9.777423,10.04708673941587
243264.44463832487,-2.2852273,0.105287954,9.681706,9.948305405261681
243266.7557106599,-2.2014754,0.13400285,9.593168,9.84344060665971
243269.06678299492,-2.2254045,0.234505,9.650599,9.906638120091309
243271.37785532995,-2.2780485,0.19861138,9.66017,9.927126264811875
243273.68892766497,-2.2708697,0.16271774,9.542917,9.810738561707664
243276.0,-2.1966896,0.25125536,9.483095,9.73743627623318
243277.82249365482,-2.1942968,0.46661708,9.473523,9.735517858715426
243280.13356598985,-2.2971919,0.5623334,9.574025,9.861808362506654
243282.44463832487,-2.4694812,0.39961565,9.724778,10.04138124035545
243284.7557106599,-2.4910173,0.19382556,9.746315,10.061480587658737
243287.06678299492,-2.3641932,0.2057901,9.652991,9.940422239435568
243289.37785532995,-2.2014754,0.35893622,9.684099,9.937660820768338
243291.68892766497,-2.1751535,0.4977249,9.708028,9.961166120160142
243294.0,-2.2086542,0.4977249,9.801352,10.059442553102118
243296.82249365482,-2.263691,0.35893622,9.84921,10.112372114277088
243299.13356598985,-2.2517266,0.25604117,9.722385,9.98301556896049
243301.44463832487,-2.239762,0.23211208,9.597955,9.858557197498575
243303.7557106599,-2.2445478,0.34457877,9.5405245,9.807055475030198
243306.06678299492,-2.2589052,0.44747382,9.535739,9.809852384123495
243308.37785532995,-2.3211207,0.49293905,9.557275,9.847441070481631
243310.68892766497,-2.3282995,0.49533197,9.588383,9.879444360736759
243313.0,-2.2589052,0.49533197,9.523774,9.800524356694753
243315.82249365482,-2.1990826,0.49533197,9.487881,9.751984614030512
243318.13356598985,-2.1823323,0.62454903,9.480701,9.748657713239204
243320.44463832487,-2.2230117,0.6580497,9.624276,9.899570644739244
243322.7557106599,-2.342657,0.5695121,9.746315,10.040071809051986
243325.06678299492,-2.4311945,0.3804724,9.73435,10.04056949911169
243327.37785532995,-2.4335876,0.24168372,9.583597,9.890707309681941
243329.68892766497,-2.3570144,0.24886245,9.495059,9.78639845981699
243332.0,-2.371372,0.208183,9.581204,9.872497931804746
243333.82249365482,-2.392908,0.18664683,9.621883,9.916727192037808
243336.13356598985,-2.3641932,0.20100428,9.502238,9.793995059022063
243338.44463832487,-2.290013,0.17707519,9.399343,9.675906365541758
243340.7557106599,-2.3211207,0.22014755,9.461558,9.744595734821608
243343.06678299492,-2.318728,0.17228939,9.526167,9.805816686221478
243345.37785532995,-2.3306925,0.23211208,9.727171,10.005191612881744
243347.68892766497,-2.3450499,0.30629224,9.765458,10.047748201439875
243350.0,-2.2804415,0.39722276,9.576418,9.852206913514772
243351.82249365482,-2.2852273,0.4115802,9.547704,9.826001920685407
243354.13356598985,-2.290013,0.5001178,9.667349,9.947457667255831
243356.44463832487,-2.2852273,0.5144752,9.719993,9.99826047190857
243358.7557106599,-2.2780485,0.4139731,9.605133,9.880256000912368
243361.06678299492,-2.2445478,0.59583414,9.492666,9.772600520661344
243363.37785532995,-2.21344,0.6676214,9.631455,9.905047217674582
243365.68892766497,-2.2947989,0.56711924,9.708028,9.991673226872635
243368.0,-2.318728,0.51926106,9.535739,9.827331777371583
243369.82249365482,-2.3211207,0.46183127,9.43045,9.722873887304017
243372.13356598985,-2.3498356,0.4977249,9.514202,9.812721188330553
243374.44463832487,-2.3067634,0.6269419,9.444808,9.74261831780447
243376.7557106599,-2.3618002,0.55036885,9.58599,9.887983127810765
243379.06678299492,-2.5340896,0.3278284,9.806137,10.133578066183913
243381.37785532995,-2.471874,0.07418015,9.7415285,10.050524428249615
243383.68892766497,-2.3737648,0.031107806,9.655384,9.942945600211699
243386.0,-2.2589052,0.11485959,9.7415285,10.000661125361376
243388.82249365482,-2.2517266,0.14118157,9.729565,9.987724465867098
243391.13356598985,-2.2852273,0.16989647,9.58599,9.856081011400208
243393.44463832487,-2.340264,0.21536173,9.389771,9.67941194995262
243395.7557106599,-2.3594074,0.15314612,9.4137,9.706080810669455
243398.06678299492,-2.4120514,0.03828653,9.497452,9.799033233279975
243400.37785532995,-2.4838386,0.12443122,9.456773,9.778317487834482
243402.68892766497,-2.5508401,0.043072347,9.672134,10.002940395543707
243405.0,-2.5915194,-0.05025107,9.796566,10.133666827114878
243406.82249365482,-2.4407663,0.009571632,9.593168,9.898803161169477
243409.13356598985,-2.2206187,0.24168372,9.349092,9.61223593425415
243411.44463832487,-2.237369,0.42833054,9.58599,9.852943284813819
243413.7557106599,-2.3976939,0.18903974,10.019106,10.303744809564748
243416.06678299492,-2.3809435,0.11485959,9.775029,10.061474873319925
243418.37785532995,-2.2421548,0.18903974,9.483095,9.746388302827222
243420.68892766497,-2.1057591,0.33500713,9.456773,9.694173855358313
243423.0,-1.9310769,0.5910483,9.33952,9.555366550637736
243425.82249365482,-1.9286839,0.8040171,9.346699,9.5774238331512
243428.13356598985,-1.9502201,0.8231604,9.566847,9.798240301400101
243430.44463832487,-1.7516087,0.9547703,9.361056,9.571263699157692
243432.7557106599,-1.5649619,1.1749178,9.078693,9.28720647845505
243435.06678299492,-1.4644598,1.5458187,9.124159,9.369336978482883
243437.37785532995,-1.6104271,1.7085364,9.518989,9.804270684587424
243439.68892766497,-1.6415349,1.2371335,9.7415285,9.95602900965302
243442.0,-1.1629534,1.222776,8.89444,9.053104697856286
243443.82249365482,-0.63172776,2.1703677,8.004277,8.317332878314232
243446.13356598985,-0.8901618,2.8020954,8.695828,9.17940909135574
243448.44463832487,-1.5458187,1.9980782,10.693906,10.988243603207064
243450.7557106599,-1.8616825,0.9499845,10.997806,11.194644661385306
243453.06678299492,-1.6343563,0.6580497,9.289269,9.454875381377631
243455.37785532995,-1.0074143,1.1773108,8.013849,8.16227419819024
243457.68892766497,-0.8638398,2.2924058,8.233996,8.590694598223921
243460.0,-3.1658175,3.0557437,11.457244,12.273076634606822
243462.82249365482,-6.6474986,-5.367293,16.286133,18.39117179188265
243465.13356598985,-5.565904,-9.887496,11.052842,15.840049897781132
243467.44463832487,1.1294526,-7.379729,6.980113,10.220471651634124
243469.7557106599,9.083479,-4.527382,11.253847,15.154400378001567
243472.06678299492,13.785543,-4.9461412,17.42755,22.764555949494962
243474.37785532995,10.574261,0.045465253,18.767578,21.5415655598992
243476.68892766497,3.907619,13.026992,17.207401,21.93323177263273
243479.0,-1.4285661,23.31889,12.967169,26.72000942755691
243481.82249365482,-7.2002606,24.424414,3.2830698,25.67438994918828
243484.13356598985,-14.204303,19.791742,-9.973641,26.32392048892516
243486.44463832487,-21.148521,15.02507,-18.939867,32.120573328787735
243488.7557106599,-27.327011,5.853053,-13.921939,31.2224942170649
243491.06678299492,-24.565594,-15.345719,4.948534,29.384477006558296
243493.37785532995,-7.6118407,-40.837368,43.620323,60.235897292510955
243495.68892766497,12.701556,-45.13264,56.58031,73.48208079448239
243498.0,26.965681,-26.67614,18.805864,42.33703955025501
243499.82249365482,30.105177,-12.785308,-0.96194905,32.72172258349167
243502.13356598985,21.258596,1.4716384,-6.611605,22.31158766532753
243504.44463832487,6.4680305,16.044449,-5.604191,18.184243702365304
243506.7557106599,-5.728622,31.146091,12.32587,33.98268920871426
243509.06678299492,-9.947319,26.92261,40.736866,49.83240247069989
243511.37785532995,3.8406174,2.3546216,10.839873,11.73871507229383
243513.68892766497,3.874118,-10.40915,-12.77813,16.930440050315408
243516.0,-8.332106,-15.462972,-13.584539,22.205116376874518
243518.82249365482,-21.816143,-12.146401,2.0387578,25.052658262474083
243521.13356598985,-21.976467,2.730308,55.520252,59.77389117098248
243523.44463832487,-0.5527618,9.337128,23.292568,25.100422883500336
243525.7557106599,6.0277357,7.674056,-11.026521,14.724432027199946
243528.06678299492,-3.854975,3.4242516,-14.9413185,15.805990313459318
243530.37785532995,-2.7470584,-3.1873536,-0.70830077,4.266994586969394
243532.68892766497,0.24886245,-2.5508401,38.27217,38.357889856503945
243535.0,3.541504,2.234976,14.252161,14.85467810060228
243536.82249365482,-5.415151,-1.6726427,2.677664,6.268291509778425
243539.13356598985,-5.4869385,-8.765223,-0.7705164,10.369634702591034
243541.44463832487,-0.09571633,-5.946377,18.087992,19.04058863675232
243543.7557106599,1.8210031,3.3381069,12.553196,13.116468266284686
243546.06678299492,-8.068886,2.7159507,9.289269,12.60054871980532
243548.37785532995,-7.367764,-5.3385777,5.5300107,10.647317810638874
243550.68892766497,2.163189,-6.31967,14.807315,16.244204907222944
243553.0,4.0966587,2.6465564,8.542682,9.836884112146013
243555.82249365482,-7.4036574,3.0844586,10.248825,13.01408627727332
243558.13356598985,-3.491253,-5.9822702,6.6498914,9.601950837596025
243560.44463832487,6.7264647,-8.420644,11.514674,15.771502466834226
243562.7557106599,2.553233,0.088537596,8.38475,8.765322026069235
243565.06678299492,-10.114822,-0.5240469,14.510594,17.695807059242018
243567.37785532995,-2.3259068,-7.461087,9.806137,12.539457106534726
243569.68892766497,6.7240715,-6.013378,6.2813835,10.992253234986377
243572.0,-3.2304258,0.40679437,8.186138,8.809880127664243
243573.82249365482,-11.500317,-3.668328,15.113607,19.342570614231242
243576.13356598985,2.263691,-7.9875274,9.088264,12.30940426840096
243578.44463832487,6.78868,-1.9095407,2.9121692,7.629760892504111
243580.7557106599,-8.691042,1.7731448,13.488823,16.14393382831025
243583.06678299492,-6.424958,-5.1016803,14.809709,16.930289656407332
243585.37785532995,9.049978,-4.9150333,4.1277666,11.09495882122455
243587.68892766497,2.134474,2.3019776,4.087087,5.153577424774635
243590.0,-13.153816,0.27757734,19.13848,23.224584845631526
243592.82249365482,-1.0983448,-3.8430104,12.936061,13.539452146594272
243595.13356598985,8.365606,3.1442811,0.44747382,8.94818977238629
243597.44463832487,-7.5831256,6.5709257,9.911426,14.103801748953076
243599.7557106599,-12.1152935,-0.7657306,16.937004,20.838156934789954
243602.06678299492,4.5656686,-0.07896597,5.9750915,7.520191741093857
243604.37785532995,0.859054,8.190925,3.5271466,8.959352056283567
243606.68892766497,-13.969797,2.390515,17.154758,22.252090064193926
243609.0,-2.4072654,-5.3385777,11.050449,12.506308874587075
243610.82249365482,6.322063,4.613527,1.0504867,7.896621699345543
243613.13356598985,-8.719757,6.7551794,12.117686,16.386119884213876
243615.44463832487,-7.6620917,-7.0399356,15.754907,18.880821937881972
243617.7557106599,7.243333,-3.8884757,2.6992004,8.652849184964433
243620.06678299492,-3.7664373,8.975799,6.5661397,11.741601602130281
243622.37785532995,-12.560374,-0.5934412,19.686455,23.35961639121581
243624.68892766497,5.55394,-9.830067,7.3462276,13.470097501469347
243627.0,3.35725,5.7405863,0.87580436,6.7076442889618635
243628.82249365482,-13.878867,7.0519004,16.305275,22.54360754805748
243631.13356598985,-1.2299547,-7.659699,14.769029,16.68256559817746
243633.44463832487,7.922919,1.1414171,0.8040171,8.044993596879106
243635.7557106599,-10.229682,9.937747,9.105016,16.920594718194423
243638.06678299492,-9.114587,-3.8980472,16.781464,19.49071579335384
243640.37785532995,7.31512,-3.9195836,4.4675593,9.425136726371955
243642.68892766497,-5.333792,9.088264,5.9439836,12.098628875621772
243645.0,-12.423979,-2.0220072,16.889145,21.063878705981903
243647.82249365482,5.604191,-9.959284,7.0662575,13.436007205023495
243650.13356598985,-0.83991075,7.5137315,3.5630403,8.358042073445306
243652.44463832487,-13.1107435,4.455595,17.276796,22.141174358024312
243654.7557106599,4.350307,-11.155738,11.426136,16.55089862241289
243657.06678299492,4.4292727,3.8430104,1.0552725,5.958253572543695
243659.37785532995,-13.003062,9.99757,12.512516,20.629931748093593
243661.68892766497,-0.8279462,-8.092815,16.140165,18.074403883988662
243664.0,7.0160065,-0.78248096,2.60827,7.52593489565946
243665.82249365482,-11.473994,10.973877,7.6453414,17.62185460857395
243668.13356598985,-7.243333,-4.2019467,16.451242,18.459837278835746
243670.44463832487,6.7767158,-3.4433947,5.4869385,9.374824702187235
243672.7557106599,-7.8630958,10.583833,5.771694,14.3929930230478
243675.06678299492,-9.495059,-2.9337053,15.991805,18.828186300298658
243677.37785532995,7.549625,-8.300998,7.396479,13.439170622998653
243679.68892766497,-3.6778998,9.210303,5.1902175,11.19352428808529
243682.0,-10.105251,0.16511066,17.556767,20.25792256859858
243684.82249365482,8.073672,-11.562531,10.066964,17.326859694325485
243687.13356598985,-0.71787244,8.016242,2.4144442,8.402679182117403
243689.44463832487,-13.03417,7.2194037,14.740314,20.959156332998464
243691.7557106599,5.4031863,-8.98537,12.797273,16.54392615028055
243694.06678299492,1.5194967,6.0564504,1.8688612,6.517829688925332
243696.37785532995,-13.893225,8.389536,11.639105,19.9718496989374
243698.68892766497,1.7348584,-8.671899,13.998512,16.558076704387968
243701.0,3.0844586,3.4051082,2.9935281,5.483598927192872
243702.82249365482,-12.084186,7.6333766,10.909268,17.98077078147229
243705.13356598985,0.62454903,-11.076772,14.434022,18.20510726492272
243707.44463832487,4.347914,-0.016750356,3.902833,5.842665671738469
243709.7557106599,-11.653462,10.026285,11.442886,19.164269031081385
243712.06678299492,-0.19861138,-8.679078,16.353134,18.5146113389481
243714.37785532995,7.499374,-2.7183435,3.330928,8.644367132245845
243716.68892766497,-10.028678,10.174645,8.578575,16.664025094026172
243719.0,-3.5056105,-5.3457565,16.889145,18.058505928399157
243721.82249365482,7.552018,-3.0270288,5.017928,9.559052287833635
243724.13356598985,-8.281855,9.6912775,6.6307483,14.369300777733903
243726.44463832487,-5.9726987,-5.5515466,15.367256,17.39670533125423
243728.7557106599,6.381886,-5.3816504,6.482388,10.569389013909941
243731.06678299492,-7.0901866,9.9927845,7.260083,14.242025602179938
243733.37785532995,-6.5302463,-4.1038375,16.001377,17.7631546990167
243735.68892766497,7.7386646,-8.494823,6.5924616,13.247999756193261
243738.0,-5.623334,9.349092,6.0301285,12.465546768053628
243739.82249365482,-8.829831,-0.12203831,17.004005,19.160297358801444
243742.13356598985,7.834381,-7.946848,8.042564,13.75546271422234
243744.44463832487,-3.8382246,8.463716,3.644399,9.982389527558126
243746.7557106599,-10.99302,1.3256711,15.022677,18.66238775805776
243749.06678299492,5.89134,-7.599876,9.612311,13.596415886979075
243751.37785532995,-2.0698655,7.7984877,3.7305436,8.889190578823388
243753.68892766497,-10.495295,0.46183127,14.520166,17.92204580751123
243756.0,5.991842,-11.177274,10.165073,16.253071516466328
243758.82249365482,-0.93323416,6.6714277,4.065551,7.868136913356249
243761.13356598985,-11.064807,3.3668218,16.348349,20.025832267499027
243763.44463832487,6.5422106,-10.940375,11.617569,17.24703551759369
243765.7557106599,0.72744405,5.9990206,1.8210031,6.311376656111912
243768.06678299492,-12.572339,6.2909555,14.321555,20.068551682967215
243770.37785532995,4.611134,-8.506788,13.778365,16.836607167601347
243772.68892766497,2.495803,5.5850477,1.7516087,6.36316929399179
243775.0,-11.593639,6.046879,12.0650425,17.791640211902
243776.82249365482,3.0892444,-9.803744,14.055943,17.413396021446143
243779.13356598985,2.3139422,4.4340587,3.1993182,5.9372419526946825
243781.44463832487,-10.918839,6.9083257,12.9599905,18.300474388531345
243783.7557106599,3.5726118,-11.301705,14.905424,19.043732711847756
243786.06678299492,3.7090075,2.2182257,2.8930259,5.200659645589927
243788.37785532995,-11.378278,8.770008,12.199045,18.846616393331008
243790.68892766497,2.2086542,-8.408679,15.841051,18.069945563969462
243793.0,5.15911,1.2706342,2.5628045,5.899058752676557
243795.82249365482,-10.220111,7.0949726,9.60274,15.716294746366644
243798.13356598985,-0.22014755,-8.698221,15.601761,17.863998987061464
243800.44463832487,4.2545905,0.90451926,4.792995,6.472441307916681
243802.7557106599,-8.693435,7.0423284,9.289269,14.541689033500631
243805.06678299492,-0.07418015,-10.983448,14.618276,18.284846892318622
243807.37785532995,4.714029,-2.134474,5.23329,7.3597128268443335
243809.68892766497,-8.829831,8.006671,9.9425335,15.521812664422422
243812.0,-1.0337363,-8.815474,15.817122,18.13732452556048
243814.82249365482,5.4534373,-2.9791706,4.6039553,7.733811495849491
243817.13356598985,-9.004513,7.6381626,7.444337,13.958543464157597
243819.44463832487,-3.5582542,-6.3771,14.958069,16.64549204951835
243821.7557106599,5.3577213,-2.0626867,5.8458743,8.193540155648904
243824.06678299492,-7.16676,6.4488873,7.547232,12.243827308792186
243826.37785532995,-3.4553592,-9.509417,14.625454,17.784049695922175
243828.68892766497,4.9772487,-4.4890957,7.0638647,9.73771889742748
243831.0,-6.8843966,7.896597,8.265104,13.34402880907099
243832.82249365482,-3.2615337,-7.85831,15.166251,17.38981907690062
243835.13356598985,6.176096,-5.807588,6.5254602,10.698311595796042
243837.44463832487,-7.317513,8.848974,7.0710435,13.48517680776701
243839.7557106599,-5.441473,-3.7592585,16.039663,17.349710142625444
243842.06678299492,6.357957,-3.902833,6.781502,10.081889307850092
243844.37785532995,-6.1928463,8.219639,4.9820347,11.43391797844242
243846.68892766497,-6.2095966,-5.434294,14.412485,16.60753940499292
243849.0,5.2189326,-5.317042,8.001884,10.93335907498527
243851.82249365482,-5.807588,8.214853,6.6833925,12.078063731344079
243854.13356598985,-5.398401,-6.269419,15.884124,17.909599191543567
243856.44463832487,6.561354,-8.059315,7.8439527,13.020426972353029
243858.7557106599,-5.7405863,8.841795,6.1330233,12.19613236596404
243861.06678299492,-6.4441013,-2.495803,16.68814,18.06237777367838
243863.37785532995,7.37255,-7.0519004,7.441944,12.627997594755717
243865.68892766497,-5.1423593,8.159817,4.2091255,10.523459987976185
243868.0,-7.7219143,-2.6465564,15.632869,17.635725514026532
243869.82249365482,5.96552,-6.745608,8.825045,12.608412882361085
243872.13356598985,-4.3598785,7.786523,4.6972785,10.084785881259627
243874.44463832487,-6.9729342,-4.2833056,15.194966,17.25849095262031
243876.7557106599,5.8243384,-9.296448,8.803509,14.065867691952018
243879.06678299492,-4.8097453,8.389536,5.23329,10.99569408315219
243881.37785532995,-7.343835,-1.6295704,16.365099,18.011215324779787
243883.68892766497,7.0734363,-9.786994,8.363214,14.688842740528939
243886.0,-4.0918727,7.011221,3.9411197,9.024027182670405
243888.82249365482,-8.837009,-0.41875893,16.156916,18.420478325455928
243891.13356598985,5.941591,-7.2840123,9.459166,13.335485001055954
243893.44463832487,-3.172996,7.3270845,3.6659353,8.785963379729187
243895.7557106599,-7.810452,-2.3211207,15.0824995,17.142711364185445
243898.06678299492,5.654442,-9.255769,9.509417,14.424665881489734
243900.37785532995,-3.381179,7.867882,4.9628916,9.897789229384284
243902.68892766497,-7.1978674,-1.3831009,16.207167,17.787482266286382
243905.0,6.4608517,-10.959519,8.990156,15.578079673216783
243906.82249365482,-3.4864671,6.843717,4.0751224,8.694741962269678
243909.13356598985,-8.619255,0.5695121,16.410564,18.545147925674993
243911.44463832487,5.6951213,-8.923154,9.856388,14.463936820104466
243913.7557106599,-2.8451676,6.4704237,3.0318146,7.691115738199797
243916.06678299492,-8.48286,-0.64369226,14.113372,16.47909350406047
243918.37785532995,4.4890957,-8.994942,9.813316,14.048563367938321
243920.68892766497,-3.2399976,6.9394336,4.7594943,9.016990025975808
243923.0,-7.3294773,-1.6606783,14.668527,16.481649621838073
243924.82249365482,5.278755,-11.679785,9.495059,15.951137182336907
243927.13356598985,-3.4768956,6.4297442,4.7714586,8.729102511842038
243929.44463832487,-8.267497,1.1318455,15.441436,17.551937973425478
243931.7557106599,5.5443683,-9.7415285,9.820495,14.902332683421818
243934.06678299492,-2.7135577,6.2622404,3.1945324,7.535521712082795
243936.37785532995,-8.478073,0.4402951,14.020048,16.39003744628782
243938.68892766497,4.2737336,-8.576182,10.574261,14.269922644394887
243941.0,-3.2926416,7.0949726,4.560883,9.054378975970153
243942.82249365482,-7.2648687,-1.4094229,13.821437,15.67791156003417
243945.13356598985,4.8001738,-11.586461,10.342149,16.25570032182337
243947.44463832487,-3.699436,6.980113,5.5012956,9.626632718113035
243949.7557106599,-7.3318706,0.8518753,14.864745,16.596465344672623
243952.06678299492,5.5635114,-10.741764,10.1842165,15.813172314513562
243954.37785532995,-3.433823,6.8102164,4.058372,8.63947747844405
243956.68892766497,-8.107173,1.9215052,13.95544,16.253391703861567
243959.0,4.192375,-7.791309,11.493137,14.504230492338262
243961.82249365482,-3.6563635,7.396479,5.597012,9.970127329664214
243964.13356598985,-6.874825,-0.49054617,13.888438,15.50459816974857
243966.44463832487,4.0559793,-10.179431,10.26079,15.01184848677502
243968.7557106599,-4.087087,6.7312503,4.314413,8.979319032164303
243971.06678299492,-6.0755935,-0.5360114,11.08395,12.651248641959109
243973.37785532995,4.2067323,-10.303863,10.68912,15.431249973382982
243975.68892766497,-4.2617693,6.324456,7.549625,10.731181617276984
243978.0,-6.7838945,0.57908374,14.01287,15.579380225219571
243980.82249365482,3.2711053,-6.956184,10.086107,12.681410810355175
243983.13356598985,-3.7425082,7.0734363,4.2856984,9.077834515620314
243985.44463832487,-5.7740874,-1.0313433,11.241882,12.680049889776367
243987.7557106599,2.1249025,-7.4060507,11.607997,13.93235055392613
243990.06678299492,-4.663778,7.9277043,7.3007627,11.743102516082953
243992.37785532995,-4.448416,-1.196454,11.5218525,12.40858541957657
243994.68892766497,3.4864671,-9.164838,9.839638,13.891298872915751
243997.0,-4.6757426,6.9035397,7.0279713,10.90476087975131
243998.82249365482,-5.21654,0.31107804,12.983919,13.996114164907747
244001.13356598985,3.0126712,-6.17131,10.638869,12.662811239001014
244003.44463832487,-4.0559793,6.762358,5.534796,9.634024110609673
244005.7557106599,-4.936569,-1.3902797,10.727407,11.89032598710574
244008.06678299492,0.8829831,-4.9078546,10.748943,11.84932367466075
244010.37785532995,-5.417544,8.207675,7.3342633,12.268134742139404
244012.68892766497,-3.5773976,-2.5580187,10.59819,11.474443974944297
244015.0,2.2924058,-7.659699,9.605133,12.497387449789802
244017.82249365482,-5.601798,6.968148,8.245961,12.162692966453976
244020.13356598985,-4.2330546,-1.6319634,12.73745,13.521267998528124
244022.44463832487,2.445552,-5.9750915,9.361056,11.37153518453917
244024.7557106599,-4.874354,6.4106007,6.750394,10.508232363599145
244027.06678299492,-4.4101295,-2.4575167,11.797037,12.831941104794634
244029.37785532995,0.69872916,-3.5462897,9.363449,10.03686057743961
244031.68892766497,-5.726229,7.817631,7.212225,12.07978652390956
244034.0,-3.3117847,-4.2545905,11.014556,12.263356069974497
244035.82249365482,0.72505116,-5.910483,8.664721,10.513652956311015
244038.13356598985,-7.080615,8.205282,8.580969,13.823703934065934
244040.44463832487,-3.7281508,-2.4359803,12.51491,13.283677228750657
244042.7557106599,1.5266753,-4.97007,7.554411,9.170684752702554
244045.06678299492,-7.1787243,7.8798466,7.473052,13.01816312732507
244047.37785532995,-4.611134,-1.7683591,12.8092375,13.728299822043335
244049.68892766497,0.35415038,-1.8784329,7.958812,8.185146370273445
244052.0,-6.4943523,8.217246,6.8867893,12.535055264482313
244054.82249365482,-2.7781663,-4.7834234,11.639105,12.886741737737598
244057.13356598985,0.5025107,-4.2809124,7.6668777,8.795438684161555
244059.44463832487,-7.7697725,8.341678,8.982977,14.513677423036839
244061.7557106599,-2.3833365,-4.730779,13.247139,14.26699879107005
244064.06678299492,1.4429235,-4.4101295,6.264633,7.795953890211992
244066.37785532995,-8.394321,8.372786,8.466109,14.568567947904763
244068.68892766497,-3.6826856,-2.8044882,13.97219,14.719015615471253
244071.0,0.7633377,-0.8734115,6.1880603,6.295841672803537
244072.82249365482,-7.4850163,8.904011,7.5950904,13.892166104807373
244075.13356598985,-2.3785505,-5.0849295,13.309355,14.444824021671067
244077.44463832487,-0.0071787243,-1.4524952,6.7575727,6.911915988775537
244079.7557106599,-8.530717,10.193789,9.15048,16.137464204174396
244082.06678299492,-1.2443122,-5.5515466,13.752043,14.882428201637307
244084.37785532995,1.2538838,-3.0557437,5.0155354,6.005446652218741
244086.68892766497,-9.236626,9.2988405,9.303627,16.072995049568245
244089.0,-2.5364826,-3.9411197,15.039428,15.75279540389625
244091.82249365482,0.6269419,-0.25604117,4.9102473,4.956726921454103
244094.13356598985,-8.793938,9.011692,7.834381,14.82974928661537
244096.44463832487,-2.1679747,-5.697514,13.826223,15.11046731659101
244098.7557106599,-0.5934412,0.12443122,5.5371895,5.570289323300755
244101.06678299492,-9.1983385,9.777423,9.353878,16.361615608502582
244103.37785532995,-0.4402951,-6.9705415,13.548646,15.242969428940748
244105.68892766497,0.2368979,-1.4022441,4.469952,4.690722760227172
244108.0,-10.246432,9.26534,10.406757,17.29556258996142
244109.82249365482,-1.2562767,-4.898283,14.883888,15.71946339706276
244112.13356598985,0.2967206,1.0289505,4.240233,4.373369197792888
244114.44463832487,-9.384986,8.743686,9.112194,15.734105839876253
244116.7557106599,-1.2849916,-5.659228,14.043978,15.195768589727159
244119.06678299492,-1.1246668,2.1536174,5.156717,5.700409944442066
244121.37785532995,-9.071514,8.365606,9.648206,15.664086600177745
244123.68892766497,0.46183127,-8.418251,13.302176,15.748908671902532
244126.0,-1.3113136,0.45943835,4.9461412,5.1376005805563665
244128.82249365482,-10.423508,8.317748,10.997806,17.285432815848264
244131.13356598985,0.15314612,-6.511103,13.718542,15.18605645374875
244133.44463832487,-0.7346228,1.5984626,3.4218585,3.8475796204758193
244135.7557106599,-9.84921,6.831753,9.748708,15.450472301725052
244138.06678299492,-0.5886554,-6.3986363,14.067906,15.465931620968162
244140.37785532995,-2.1536174,3.8860826,4.656599,6.436118405250677
244142.68892766497,-9.0475855,7.0901866,9.5405245,14.938244781021968
244145.0,1.1103094,-8.497216,12.495766,15.15188551438864
244147.82249365482,-2.3833365,2.711165,4.812138,6.015594788589175
244150.13356598985,-9.918604,7.0471144,12.108115,17.1652840212077
244152.44463832487,1.6176059,-7.4323726,13.216031,15.248615894759318
244154.7557106599,-1.978935,3.3883579,3.4721096,5.239532237435855
244157.06678299492,-9.937747,6.424958,11.172488,16.274624077007648
244159.37785532995,0.48097453,-5.814767,13.31414,14.536477417256139
244161.68892766497,-2.5843408,5.130395,3.75208,6.861331835217537
244164.0,-8.250747,4.922212,10.538367,14.260440948920268
244165.82249365482,1.4668527,-8.545074,12.747022,15.416112232902863
244168.13356598985,-3.7137933,4.536954,4.742744,7.541208982834045
244170.44463832487,-9.093051,5.1878247,12.242118,16.107965567769728
244172.7557106599,2.4407663,-8.183745,11.811395,14.575324154277519
244175.06678299492,-3.0916374,4.192375,3.433823,6.239019983060862
244177.37785532995,-9.188767,4.2521977,12.993491,16.472566060795
244179.68892766497,0.99784267,-5.977484,13.268676,14.587109643699286
244182.0,-3.8071167,6.202418,2.8451676,7.814032587994028
244183.82249365482,-7.98992,3.1059947,11.057629,13.991325304790433
244186.13356598985,1.7037506,-8.090423,11.976505,14.553157129673078
244188.44463832487,-4.2737336,5.9056973,4.462774,8.547421322134078
244190.7557106599,-7.154795,2.4814458,13.775971,15.720243056110922
244193.06678299492,3.1897464,-8.726935,11.617569,14.876215448167551
244195.37785532995,-4.3646646,5.673585,3.776009,8.0930901262002
244197.68892766497,-7.8798466,2.6417706,13.7664,16.08056912247063
244200.0,2.1942968,-6.044486,11.117451,12.843226471104808
244201.82249365482,-4.2833056,6.6738205,2.914562,8.448743017813692
244204.13356598985,-6.3675284,0.34457877,13.309355,14.758153101576303
244206.44463832487,1.4285661,-7.2002606,11.864038,13.951342282211614
244208.7557106599,-5.7884445,7.188296,4.1062303,10.101426453221066
244211.06678299492,-5.671192,-0.16750357,13.084421,14.261575966633833
244213.37785532995,3.0820656,-8.449359,9.47113,13.06112932906203
244215.68892766497,-5.9942346,5.991842,4.9269977,9.803485366368761
244218.0,-6.4225655,-0.7776951,15.850623,17.120058608500244
244220.82249365482,2.1751535,-6.269419,9.820495,11.852384966374837
244223.13356598985,-5.860232,7.4634805,3.1203523,9.989117015223094
244225.44463832487,-5.022714,-1.2658484,13.979369,14.908144946160792
244227.7557106599,1.536247,-5.604191,9.779816,11.375931285101277
244230.06678299492,-6.5278535,7.7386646,4.551311,11.10019067077122
244232.37785532995,-3.512789,-3.7807949,14.237803,15.144277166679036
244234.68892766497,2.8188457,-8.437394,8.056922,12.002062352184664
244237.0,-7.291191,6.5781045,6.6355343,11.851718881996728
244238.82249365482,-4.1349454,-3.304606,17.027933,17.831676772774514
244241.13356598985,2.0220072,-5.565904,7.3510137,9.439555226368217
244243.44463832487,-7.6118407,8.023421,4.276127,11.857515148864305
244245.7557106599,-3.7305436,-3.4816813,15.39597,16.21958545916543
244248.06678299492,1.0169859,-4.321592,7.16676,8.430472503535185
244250.37785532995,-7.5089455,7.8702745,5.410365,12.148972494023743
244252.68892766497,-1.5841051,-6.7767158,14.998748,16.534681961541313
244255.0,1.5410328,-6.9609694,6.712107,9.791948603718321
244257.82249365482,-8.978191,7.3007627,8.64797,14.446329456131489
244260.13356598985,-1.8066456,-5.8674107,16.034878,17.169967650562356
244262.44463832487,1.5960697,-4.668564,4.2521977,6.513379582769561
244264.7557106599,-8.657541,7.7434506,6.987292,13.554936106621282
244267.06678299492,-1.5721406,-6.2335258,16.058805,17.297794310069104
244269.37785532995,0.03828653,-2.8068812,5.4773664,6.154802239645222
244271.68892766497,-8.097601,7.91574,7.530482,13.599200007909472
244274.0,0.4498667,-8.61447,14.429235,16.811136074456538
244275.82249365482,0.21296883,-4.400558,4.7786374,6.499664747861564
244278.13356598985,-8.79633,7.0973654,10.351721,15.32664819038586
244280.44463832487,0.79205257,-8.44218,14.802529,17.05909186392654
244282.7557106599,0.2919348,-3.101209,3.7975452,4.911626282116249
244285.06678299492,-8.509181,6.331635,10.078929,14.631492502510707
244287.37785532995,0.25364825,-8.32732,14.242589,16.500301125738556
244289.68892766497,-1.3400285,-0.885376,4.785816,5.0481285470998305
244292.0,-7.4395514,5.939198,9.382592,13.366152421505225
244294.82249365482,1.3065279,-10.27754,12.90256,16.547232341351783
244297.13356598985,-1.9693633,-1.3065279,5.704693,6.174862685527047
244299.44463832487,-7.741058,5.7070856,10.693906,14.382434791853825
244301.7557106599,1.9215052,-10.167466,12.266047,16.04759969905132
244304.06678299492,-1.457281,-1.0768087,4.7523155,5.086028657105358
244306.37785532995,-7.6261983,4.7259936,10.885339,14.106187336168652
244308.68892766497,0.57669085,-8.710185,13.105958,15.74693716785784
244311.0,-2.8284173,1.6965718,4.8264956,5.845798497409391
244313.82249365482,-6.7575727,4.419701,8.858545,11.98634077782754
244316.13356598985,1.4716384,-10.624512,12.000434,16.095228827415117
244318.44463832487,-3.1299238,0.8997334,6.458459,7.233093103200249
244320.7557106599,-6.513496,3.2615337,10.708263,12.951066701064462
244323.06678299492,2.605877,-11.928647,11.351956,16.671836108109808
244325.37785532995,-2.5149465,0.4139731,5.9176617,6.4432173346110835
244327.68892766497,-6.781502,2.885847,12.328262,14.363249152752903
244330.0,1.4477094,-9.681706,12.5675535,15.930307421787147
244331.82249365482,-3.1418884,3.0366004,4.44363,6.232034361605745
244334.13356598985,-6.0061994,2.8762755,9.523774,11.621087005419785
244336.44463832487,1.3831009,-10.531189,12.045899,16.0599686354458
244338.7557106599,-4.1421237,3.01985,6.1593456,8.01337762674648
244341.06678299492,-5.654442,1.7803236,10.464187,12.026698467287272
244343.37785532995,2.6178415,-12.804451,10.947555,17.04863689590896
244345.68892766497,-3.9124048,1.9310769,6.487174,7.817889473448231
244348.0,-6.4967456,2.0220072,12.730271,14.43454246733897
244350.82249365482,1.9095407,-10.064571,11.34717,15.287256199458996
244353.13356598985,-3.7879734,4.175625,4.3287706,7.107942144331011
244355.44463832487,-5.841089,1.9286839,10.421115,12.101147885025835
244357.7557106599,1.0337363,-10.023892,12.191867,15.817352575930357
244360.06678299492,-4.943748,4.8552103,6.1067014,9.236098382623046
244362.37785532995,-4.9963923,0.93562704,10.270362,11.459479463942612
244364.68892766497,2.8284173,-12.7542,10.478544,16.747222050921618
244367.0,-4.3335567,3.1347096,7.056686,8.854543198327232
244368.82249365482,-5.3074703,0.3613291,12.797273,13.85893199133389
244371.13356598985,2.7470584,-11.61039,10.612547,15.967894026211457
244373.44463832487,-4.1493025,4.2019467,5.3002915,7.935121756540311
244375.7557106599,-5.5563326,0.7681235,11.275383,12.593534351791956
244378.06678299492,0.9451987,-9.672134,11.208382,14.83480379898439
244380.37785532995,-5.4031863,6.0875583,5.7405863,9.960277070250319
244382.68892766497,-4.6589923,0.34936458,9.796566,10.853615538315971
244385.0,2.471874,-12.323477,10.059786,16.09899191897434
244387.82249365482,-5.3313994,4.326378,7.7243075,10.33471298661751
244390.13356598985,-4.840853,-0.5168682,12.536446,13.448549691869983
244392.44463832487,3.3740003,-12.234939,9.7415285,15.999218351983115
244394.7557106599,-4.529775,4.7236004,6.257455,9.054667601106633
244397.06678299492,-5.1926107,0.40200856,11.962148,13.046754444610803
244399.37785532995,1.4142087,-8.92794,10.813552,14.09400602197472
244401.68892766497,-5.230897,7.0447216,5.649656,10.4359474301307
244404.0,-4.1277666,-0.3828653,9.727171,10.573688978084265
244405.82249365482,2.8044882,-12.335442,10.93559,16.72170481880969
244408.13356598985,-5.262005,4.57524,8.686256,11.138786333131675
244410.44463832487,-4.0679436,-1.9645776,11.966933,12.791216349733581
244412.7557106599,3.6874714,-12.636948,9.140909,16.026419357635785
244415.06678299492,-4.862389,5.549154,7.150009,10.274169825495294
244417.37785532995,-5.156717,0.26082698,12.488587,13.513865701129117
244419.68892766497,2.215833,-9.167231,10.189003,13.883941163274173
244422.0,-4.9533195,7.6644845,5.666406,10.741873843825225
244424.82249365482,-4.292877,-0.33979294,9.779816,10.685927810586167
244427.13356598985,2.0890088,-11.416565,10.87816,15.90711410505697
244429.44463832487,-5.90809,6.7527866,8.425429,12.30826990877599
244431.7557106599,-3.9004402,-1.0911661,10.267968,11.037900346559994
244434.06678299492,3.926762,-13.500788,9.136123,16.767810826005793
244436.37785532995,-5.283541,5.5754757,8.700614,11.606137116067838
244438.68892766497,-4.9078546,-0.208183,12.488587,13.419954627076768
244441.0,3.1275308,-10.763301,10.095679,15.08485438420241
244442.82249365482,-5.1088586,7.5089455,6.84611,11.373386516287232
244445.13356598985,-4.819317,0.2991135,10.26079,11.34015417251773
244447.44463832487,2.4886243,-11.012163,10.224896,15.231857505108675
244449.7557106599,-5.379257,7.1906886,8.1119585,12.10149904433088
244452.06678299492,-4.0248713,-0.8805902,10.423508,11.208235682209923
244454.37785532995,3.8358316,-14.381377,10.217717,18.053790437793847
244456.68892766497,-5.1686816,5.9511623,8.904011,11.891720400818414
244459.0,-5.099287,1.1988469,11.435708,12.578369499234494
244460.82249365482,3.4433947,-12.050685,9.868353,15.951813908199346
244463.13356598985,-5.0466433,7.004042,6.587676,10.859221335628762
244465.44463832487,-6.013378,2.0650797,9.645813,11.552790899570764
244467.7557106599,1.9861137,-11.739607,10.947555,16.174423656557337
244470.06678299492,-5.573083,6.6833925,7.7195215,11.6326266003387
244472.37785532995,-5.1399665,0.82076746,8.79633,10.220975311261498
244474.68892766497,3.6563635,-15.135143,10.619726,18.847284366445404
244477.0,-5.0968943,5.206968,9.722385,12.149716759934014
244479.82249365482,-5.546761,2.424016,10.476151,12.099262412815833
244482.13356598985,4.788209,-14.288054,8.858545,17.47996716391716
244484.44463832487,-3.8406174,5.2213254,7.9994917,10.29584617232779
244486.7557106599,-7.0136137,4.1229806,11.720464,14.267411206525871
244489.06678299492,2.6106627,-12.529266,11.270597,17.05357507880199
244491.37785532995,-4.264162,7.0183992,6.5781045,10.521999035626495
244493.68892766497,-6.642713,5.888947,8.214853,12.09500486071779
244496.0,3.256748,-14.551274,10.629298,18.3119621704334
244497.82249365482,-4.611134,4.8001738,9.542917,11.634925446475856
244500.13356598985,-6.843717,5.4055796,9.899461,13.193031542391847
244502.44463832487,5.336185,-16.865215,8.961441,19.829719416747455
244504.7557106599,-2.7374868,2.3809435,9.140909,9.834578957771782
244507.06678299492,-8.107173,6.817395,12.802058,16.616131248678737
244509.37785532995,3.4505734,-13.433786,10.488116,17.38889416587609
244511.68892766497,-2.079437,4.843246,5.903304,7.91391737194046
244514.0,-7.968384,9.779816,9.351485,15.703191276633454
244516.82249365482,2.579555,-13.876474,11.7755,18.381322991577647
244519.13356598985,-3.1299238,3.4003224,8.578575,9.744258024517476
244521.44463832487,-8.308177,10.021499,9.112194,15.88988126966234
244523.7557106599,4.1062303,-16.202381,9.7176,19.334167349689487
244526.06678299492,-1.3950654,-0.30868515,8.947083,9.060451876203343
244528.37785532995,-9.176803,10.251218,11.763536,18.101987819232146
244530.68892766497,3.1849606,-14.256947,11.115058,18.35617133630337
244533.0,-0.1196454,-0.088537596,7.032757,7.0343318764965606
244534.82249365482,-9.071514,11.969326,9.229446,17.627813381511277
244537.13356598985,1.3998512,-12.328262,11.397421,16.847754532103867
244539.44463832487,-1.0839874,0.26082698,8.406286,8.479899982349478
244541.7557106599,-8.379964,11.904717,8.071279,16.646069451592048
244544.06678299492,2.7231295,-15.104036,10.210539,18.43373115876401
244546.37785532995,0.47618872,-4.264162,9.648206,10.559247713626915
244548.68892766497,-8.88726,11.091129,11.098308,18.032442243498384
244551.0,2.0914016,-13.742471,10.988234,17.719219968076462
244553.82249365482,1.7516087,-4.3550925,7.681235,9.002018376269676
244556.13356598985,-9.1480875,14.209088,9.255769,19.267977228571795
244558.44463832487,-0.53840435,-8.808294,12.577125,15.364244065366833
244560.7557106599,1.3184924,-3.0030997,7.5687685,8.248835470755257
244563.06678299492,-8.547467,14.328733,6.7097144,17.983104538175418
244565.37785532995,-0.45465255,-10.375649,12.144009,15.979291464408035
244567.68892766497,1.9550059,-6.8796105,9.313198,11.742518711415752
244570.0,-8.126316,12.928883,8.339285,17.399330494900372
244571.82249365482,0.009571632,-10.4354725,12.282797,16.117266519407202
244574.13356598985,3.8454032,-9.913818,8.815474,13.812439862398325
244576.44463832487,-8.1526375,13.28064,8.76283,17.87814550295713
244578.7557106599,-2.5149465,-5.3457565,13.900403,15.103750263347296
244581.06678299492,4.03205,-8.068886,7.753022,11.894271672363129
244583.37785532995,-7.3510137,13.816651,5.230897,16.50150086198215
244585.68892766497,-4.0248713,-4.2809124,13.062885,14.323573732880437
244588.0,2.8499537,-9.810924,10.251218,14.472868972993698
244590.82249365482,-7.267262,12.158366,6.4680305,15.571588850066979
244593.13356598985,-3.4553592,-4.8815327,11.5721035,13.026221559489391
244595.44463832487,5.125609,-14.457951,8.889653,17.729358285050562
244597.7557106599,-6.2981343,10.179431,7.977956,14.385238721777734
244600.06678299492,-5.2380757,-0.8614469,14.663741,15.595025742701777
244602.37785532995,5.932019,-13.967404,8.750865,17.51727325138824
244604.68892766497,-5.568297,10.904482,5.5324035,13.435815853730107
244607.0,-7.9372764,3.984192,12.974348,15.722844798825847
244608.82249365482,4.0918727,-12.108115,9.358664,15.840911050540189
244611.13356598985,-5.051429,10.122002,5.3816504,12.52733093910531
244613.44463832487,-7.2648687,3.5367181,11.940612,14.417520836872452
244615.7557106599,5.259612,-16.386635,10.124394,19.967190059720597
244618.06678299492,-4.1421237,6.7838945,8.006671,11.282074004165764
244620.37785532995,-7.3031554,4.993999,13.273461,15.951829729754238
244622.68892766497,6.8580747,-17.925274,8.523539,20.999984610717625
244625.0,-1.8186102,4.792995,6.2430973,8.0781438478673
244627.82249365482,-9.542917,9.947319,14.847995,20.260290611851424
244630.13356598985,4.2737336,-14.505809,11.450066,18.968060128347492
244632.44463832487,-1.8138243,5.23329,3.9770133,6.818644850976431
244634.7557106599,-10.370864,13.266282,10.054999,19.61254861306967
244637.06678299492,2.7949166,-13.936296,11.919075,18.549831639564726
244639.37785532995,-1.9191123,2.08183,7.104544,7.647977093117322
244641.68892766497,-9.607526,11.086343,9.856388,17.67370762915549
244644.0,4.3790216,-18.25071,10.40915,21.461934894129808
244646.82249365482,1.1103094,-3.2591407,8.059315,8.7639798799033
244649.13356598985,-9.152873,12.921703,12.782915,20.350636561826832
244651.44463832487,2.9576344,-13.7329,13.632398,19.575045820750137
244653.7557106599,2.0985804,-2.5125535,5.49651,6.397545385984097
244656.06678299492,-10.248825,16.606783,7.3222985,20.843217381508456
244658.37785532995,-1.1988469,-9.016478,13.376356,16.17593920775111
244660.68892766497,1.4261732,-3.8501892,6.6163907,7.7868191687775425
244663.0,-8.899225,14.189945,6.0038066,17.79315706652008
244664.82249365482,-0.7059079,-12.495766,14.386164,19.068408127710462
244667.13356598985,2.2565124,-9.13373,10.12918,13.82451298949275
244669.44463832487,-8.47568,13.835794,7.161974,17.735845585973962
244671.7557106599,-1.304135,-7.98992,12.5173025,14.90712754292829
244674.06678299492,5.1160374,-10.619726,7.609448,14.030542322304536
244676.37785532995,-7.6644845,13.251925,7.6908064,17.13202679015668
244678.68892766497,-4.580026,-3.9506912,15.558688,16.693033618841646
244681.0,4.6207056,-10.102858,7.791309,13.569198795194811
244683.82249365482,-6.1928463,13.61804,3.8597608,15.449922723762743
244686.13356598985,-5.860232,-1.5051392,14.352663,15.575837001483086
244688.44463832487,3.986585,-12.768558,9.061943,16.156972002724952
244690.7557106599,-6.1043086,11.10788,5.262005,13.723566526178935
244693.06678299492,-6.044486,-0.5144752,14.9915695,16.172434937539286
244695.37785532995,6.1593456,-17.291153,8.966227,20.42828276936604
244697.68892766497,-4.0033355,8.478073,5.434294,10.836787725028357
244700.0,-8.403893,6.762358,16.64507,19.8346479318518
244701.82249365482,6.2407045,-14.548882,8.992549,18.206655311276844
244704.13356598985,-2.9480627,7.3821216,3.3189635,8.614076370374836
244706.44463832487,-10.619726,9.353878,14.725956,20.423696875636793
244708.7557106599,3.8454032,-14.032013,10.193789,17.765073846715644
244711.06678299492,-1.823396,4.936569,4.189982,6.726844403202812
244713.37785532995,-9.093051,9.212696,13.357213,18.600335566983354
244715.68892766497,4.448416,-17.348583,11.392635,21.226254244688818
244718.0,-1.067237,1.2012398,5.9487696,6.161966538789155
244719.82249365482,-9.52856,11.983684,12.747022,19.922065850557267
244722.13356598985,4.8049593,-16.353134,11.048057,20.311873103479684
244724.44463832487,1.4859959,-2.266084,5.2763624,5.931552974222397
244726.7557106599,-10.251218,13.673077,12.239725,21.020261016625792
244729.06678299492,0.95237744,-12.4168005,13.728114,18.534968881603692
244731.37785532995,1.7061435,-2.6465564,4.020086,5.1064936961058915
244733.68892766497,-9.557275,15.317005,7.6716633,19.61648708062218
244736.0,-0.7633377,-11.225132,14.702027,18.513126985206856
244737.82249365482,1.4381378,-5.4079723,7.2959766,9.194872444852276
244740.13356598985,-8.425429,13.993727,6.7240715,17.664240338086497
244742.44463832487,-0.28954187,-11.38785,13.141851,17.39181444884875
244744.7557106599,4.0464077,-10.212932,7.6381626,13.379795335328641
244747.06678299492,-7.6118407,12.974348,9.188767,17.626890362385804
244749.37785532995,-2.4168372,-6.6714277,16.056414,17.554414833512027
244751.68892766497,5.6113696,-10.569475,5.884161,13.33508984736699
244754.0,-6.226347,13.768793,5.384043,16.04166377490524
244756.82249365482,-5.927233,-1.0720228,17.410799,18.42327999402956
244759.13356598985,3.986585,-9.894675,7.628591,13.114604605672676
244761.44463832487,-5.125609,12.380906,2.9576344,13.72247434851967
244763.7557106599,-6.063629,-0.5934412,15.357684,16.52205274629501
244766.06678299492,4.3335567,-14.642204,9.5907755,18.032105432842034
244768.37785532995,-4.812138,8.863332,6.1043086,11.788889250362054
244770.68892766497,-6.719286,2.3570144,15.010713,16.61402497891382
244773.0,6.3723145,-16.520638,8.399107,19.598032309683624
244774.82249365482,-2.7470584,6.5781045,6.24549,9.477548945061208
244777.13356598985,-9.119372,7.934883,15.924804,19.99311622375284
244779.44463832487,4.3909864,-12.790093,9.473523,16.51105322337624
244781.7557106599,-1.6487137,5.8985186,3.0557437,6.844585312435177
244784.06678299492,-9.507024,9.023657,11.493137,17.432787760166015
244786.37785532995,1.742037,-14.979605,11.191631,18.779666219226446
244788.68892766497,-2.5891266,2.4479449,6.482388,7.39711869357303
244791.0,-8.954262,9.708028,10.442651,16.836673528973265
244793.82249365482,3.309392,-17.379692,10.940375,20.801383957928206
244796.13356598985,-0.12682413,-1.6726427,7.867882,8.044711624896044
244798.44463832487,-9.119372,12.684806,11.591247,19.453129721127883
244800.7557106599,2.031579,-12.524481,11.524245,17.140541425889296
244803.06678299492,1.87604,-2.0770442,5.9224477,6.550498106983081
244805.37785532995,-8.777187,15.077714,9.487881,19.859414819398026
244807.68892766497,-1.1892753,-9.093051,14.0870495,16.809012934828782
244810.0,1.4142087,-3.2734983,6.917897,7.78287069594938
244812.82249365482,-7.2959766,13.72572,6.3100986,16.776293047269697
244815.13356598985,-1.2897775,-10.631691,13.254318,17.040344044769498
244817.44463832487,2.0172215,-7.910954,9.124159,12.243473903572436
244819.7557106599,-6.7862873,12.371335,8.537896,16.492401071620296
244822.06678299492,-1.4189945,-8.659934,13.7664,16.32549451733044
244824.37785532995,4.532168,-11.292133,7.1212945,14.098427211063058
244826.68892766497,-5.520439,11.636712,7.293584,14.801509399001203
244829.0,-5.434294,-1.61282,16.803001,17.73340300779399
244830.82249365482,3.070101,-8.664721,7.8702745,12.10141028406988
244833.13356598985,-5.317042,12.036327,3.3237493,13.57171369761179
244835.44463832487,-7.054293,0.24168372,13.347641,15.099039075889666
244837.7557106599,1.8210031,-11.64389,9.121766,14.903115163651712
244840.06678299492,-4.556097,8.190925,5.5395823,10.887435156523656
244842.37785532995,-6.0397,-0.5623334,13.273461,14.593798746771744
244844.68892766497,3.5080032,-16.707285,9.1983385,19.391980035133532
244847.0,-3.5462897,5.1878247,6.489567,9.033502952993661
244849.82249365482,-7.7769513,4.737958,14.757064,17.34070804299616
244852.13356598985,3.390751,-13.699399,8.169388,16.306735589925594
244854.44463832487,-1.7635733,5.467795,3.2423904,6.5969741891650635
244856.7557106599,-8.978191,9.253376,14.477094,19.38605508386616
244859.06678299492,0.8734115,-12.538838,11.66782,17.150024186308784
244861.37785532995,-1.222776,3.565433,2.6441634,4.604247355384435
244863.68892766497,-7.9994917,10.684335,11.926254,17.899229489648707
244866.0,1.3089207,-13.417036,12.481409,18.371600339912295
244867.82249365482,-0.60540575,0.6532639,5.1375737,5.21420496030871
244870.13356598985,-7.441944,10.5862255,12.790093,18.19442716286048
244872.44463832487,2.28762,-15.912839,11.9645405,20.040006978054205
244874.7557106599,2.4120514,-4.187589,3.8573678,6.183298467132231
244877.06678299492,-6.6235695,12.629769,14.055943,20.02379263611018
244879.37785532995,-0.07657306,-9.779816,16.803001,19.442003678463152
244881.68892766497,2.579555,-2.3522286,1.742037,3.901509489165951
244884.0,-6.6714277,14.9915695,7.1212945,17.887647664949906
244886.82249365482,-2.6345918,-7.6453414,16.479958,18.357051363357492
244889.13356598985,1.6798215,-5.0657864,5.156717,7.4213019302799035
244891.44463832487,-5.1375737,11.540996,8.233996,15.07938799563708
244893.7557106599,-0.9763065,-10.717835,16.870003,20.01055128398956
244896.06678299492,3.3668218,-9.904246,5.620941,11.875376018760512
244898.37785532995,-4.137338,11.366313,7.803273,14.394502646939284
244900.68892766497,-2.68245,-3.7472942,19.157621,19.704116174127034
244903.0,4.493881,-8.588147,4.194768,10.561596181903283
244904.82249365482,-3.6539707,11.196417,3.5486827,12.300585531576406
244907.13356598985,-5.7358007,-1.1390243,19.576382,20.431140894135964
244909.44463832487,1.9358627,-9.358664,6.917897,11.797858075123479
244911.7557106599,-3.1634245,9.387379,1.9430413,10.094827811822594
244914.06678299492,-5.029893,-1.2084186,17.858273,18.59241817641815
244916.37785532995,2.1440456,-12.665663,9.01887,15.695730847633326
244918.68892766497,-2.988742,7.5065527,3.5391111,8.820783386898496
244921.0,-5.0322857,1.8425392,17.439514,18.24432784802326
244923.82249365482,4.115802,-14.321555,8.339285,17.07601938486994
244926.13356598985,-1.2275618,5.518046,3.1801748,6.486081358531535
244928.44463832487,-6.221561,6.0014133,18.889616,20.77359803937666
244930.7557106599,2.782952,-11.79943,10.07175,15.761076048979143
244933.06678299492,-0.5144752,5.5324035,-0.052643977,5.55652270818195
244935.37785532995,-6.513496,8.786758,15.546724,19.008770960394994
244937.68892766497,0.8279462,-12.067435,13.510359,18.13389871754556
244940.0,-1.1820966,3.7927594,2.0028641,4.449026954412473
244941.82249365482,-5.654442,9.308413,12.897775,16.881109763891647
244944.13356598985,2.3019776,-16.156916,12.998277,20.863850087428418
244946.44463832487,0.28236315,-1.9717562,3.2974274,3.852347196059452
244948.7557106599,-5.6903353,10.155502,14.508202,18.60113066378585
244951.06678299492,1.4237803,-12.555589,15.96309,20.35903258575144
244953.37785532995,1.5817122,-1.4046371,1.4524952,2.5660399787120016
244955.68892766497,-5.958341,13.778365,9.526167,17.77900523812834
244958.0,-1.7228938,-8.466109,17.22894,19.273809643388084
244960.82249365482,0.8183746,-2.6537352,1.8353605,3.3287528689592514
244963.13356598985,-5.0107493,12.818809,6.953791,15.420268544925296
244965.44463832487,-1.6343563,-9.511809,19.538095,21.79180550566785
244967.7557106599,1.0959519,-6.252669,4.453202,7.754223896914417
244970.06678299492,-4.42688,12.304334,5.860232,14.329557593023589
244972.37785532995,-1.6630712,-7.0590787,19.160015,20.48664376390843
244974.68892766497,3.0892444,-9.69367,4.0679436,10.957136220957205
244977.0,-3.7544727,10.868588,5.941591,12.943136172507431
244978.82249365482,-4.216304,-1.5434257,23.091562,23.524022145706297
244981.13356598985,3.1107805,-7.7458434,3.955477,9.236928255325621
244983.44463832487,-2.0339718,11.887967,-0.83751786,12.089757517920003
244985.7557106599,-5.4199367,2.3115492,21.495493,22.288454249881855
244988.06678299492,1.3950654,-10.007142,8.6455765,13.297935610304084
244990.37785532995,-2.7901309,8.274676,0.48815325,8.746049790596688
244992.68892766497,-5.2452545,1.5482116,18.31771,19.116698291604774
244995.0,2.7422726,-14.81928,9.19116,17.652437250326393
244996.82249365482,-1.6511066,4.792995,2.9241338,5.85230830996548
244999.13356598985,-5.5563326,4.8791394,19.803707,21.13919686715425
245001.44463832487,3.988978,-14.024835,9.667349,17.494730033627555
245003.7557106599,0.5886554,4.469952,0.234505,4.514640479293801
245006.06678299492,-6.4608517,11.057629,18.260283,22.30362524414188
245008.37785532995,1.2443122,-9.820495,13.529502,16.764183823380662
245010.68892766497,0.31825677,3.8980472,-1.7348584,4.278526967675819
245013.0,-6.5972476,11.864038,12.670448,18.56931140569983
245015.82249365482,-0.37329367,-12.967169,16.302883,20.83436618067159
245018.13356598985,-0.30629224,-1.1414171,2.165582,2.467061679646585
245020.44463832487,-5.518046,11.462029,11.624747,17.232576222636183
245022.7557106599,1.1222739,-13.194495,16.736,21.341225199403294
245025.06678299492,1.8545038,-4.8001738,1.7372513,5.431288515055388
245027.37785532995,-5.671192,12.895382,9.523774,17.00457487942183
245029.68892766497,-2.0435436,-7.0734363,20.322968,21.615563834059074
245032.0,2.1919038,-4.4890957,1.7133222,5.2812778220072625
245033.82249365482,-4.7786374,13.833402,4.608741,15.344017723509177
245036.13356598985,-4.395772,-4.0416217,20.861372,21.699178767047357
245038.44463832487,1.225169,-6.350778,4.108623,7.662519379419147
245040.7557106599,-3.8286529,12.050685,3.1179593,13.023028149948841
245043.06678299492,-3.7185793,-4.300056,21.182022,21.93162943381108
245045.37785532995,2.3546216,-11.993256,5.953555,13.595118590830591
245047.68892766497,-2.9743848,9.617098,2.4981961,10.371910269286476
245050.0,-4.9533195,1.899969,22.378477,22.998727988946918
245052.82249365482,3.9387267,-12.560374,7.0279713,14.922095818979068
245055.13356598985,-1.7300725,8.116744,0.13400285,8.300159081644182
245057.44463832487,-7.499374,7.50416,21.026484,23.55134936897952
245059.7557106599,2.0914016,-10.480937,9.6003475,14.36630339270363
245062.06678299492,-0.69155043,6.7838945,-1.5386399,6.99048491352606
245064.37785532995,-7.0399356,9.203125,17.367727,20.878125973475235
245066.68892766497,1.0504867,-13.670684,12.952811,18.861771818587297
245069.0,-0.83991075,2.5436614,0.7944455,2.7940663983316094
245070.82249365482,-6.252669,10.579046,14.895853,19.31058053221824
245073.13356598985,2.266084,-15.71662,14.405307,21.43968634760558
245075.44463832487,0.8231604,-2.0411506,1.7731448,2.8262928542130163
245077.7557106599,-6.405815,13.333283,13.359606,19.93213420202538
245080.06678299492,0.33740005,-9.949712,17.329441,19.98549806857875
245082.37785532995,2.2014754,-2.785345,0.09332342,3.55152783553088
245084.68892766497,-5.9200544,15.171038,7.592697,17.96820764100338
245087.0,-3.5750046,-5.879375,20.648403,21.764747982254587
245089.82249365482,0.9164838,-5.0107493,2.8427749,5.83343125743185
245092.13356598985,-4.7020645,13.6036825,3.1586387,14.73589449473985
245094.44463832487,-3.5271466,-5.5635114,19.425629,20.512154549960435
245096.7557106599,1.4453164,-10.653227,5.8458743,12.23741930886731
245099.06678299492,-4.3838077,10.799194,4.457988,12.47854230302399
245101.37785532995,-4.2043395,-1.4405307,20.79437,21.26399358130553
245103.68892766497,4.027264,-13.620433,6.2119894,15.502382485892204
245106.0,-2.2469406,9.0475855,1.8545038,9.505089677849076
245108.82249365482,-6.4799953,6.020557,20.942732,22.73401568799703
245111.13356598985,2.9097762,-11.619962,8.571397,14.729533629655062
245113.44463832487,-1.926291,7.9444547,-1.170132,8.257975926003725
245115.7557106599,-8.0114565,9.557275,17.087757,21.154582954245782
245118.06678299492,0.6125845,-14.508202,12.438336,19.120025823500875
245120.37785532995,-1.978935,3.046172,0.6197632,3.6850310733945295
245122.68892766497,-7.0734363,11.155738,13.476858,18.870868898038736
245125.0,1.7731448,-16.075556,14.290447,21.58203926070732
245126.82249365482,-0.9188767,-1.2945633,3.4553592,3.802595919702016
245129.13356598985,-7.2002606,13.9458685,12.316298,19.950493661862318
245131.44463832487,1.3352427,-11.887967,14.840816,19.061911027146472
245133.7557106599,1.8018597,-4.656599,1.8377534,5.320521608310284
245136.06678299492,-6.661856,14.42445,9.483095,18.503355748249046
245138.37785532995,-2.6848428,-6.867646,18.85133,20.242173431006066
245140.68892766497,1.2873845,-6.0612364,3.5008245,7.1170020182184475
245143.0,-5.518046,14.637419,4.405344,16.251459085202566
245145.82249365482,-3.9482985,-4.0153,18.243532,19.092882311744503
245148.13356598985,1.5123179,-10.933197,5.5371895,12.348375181795362
245150.44463832487,-4.78103,11.485959,4.5465255,13.245995475340132
245152.7557106599,-4.3407354,-0.8566611,19.255732,19.75750659645316
245155.06678299492,4.1014442,-16.446457,6.50871,18.156847144883457
245157.37785532995,-3.050958,8.289034,3.9171906,9.662339859870814
245159.68892766497,-6.8078237,8.262712,20.629261,23.241886380656513
245162.0,4.450809,-12.691984,7.50416,15.401577059390283
245163.82249365482,-2.0387578,7.475445,0.009571632,7.748477458909265
245166.13356598985,-9.160052,12.280404,17.209795,23.041091966049375
245168.44463832487,1.4859959,-14.166016,12.093758,18.685373308811275
245170.7557106599,-0.9093051,2.3067634,1.2586696,2.7806909771547303
245173.06678299492,-7.185903,13.33807,13.854938,20.530480272856575
245175.37785532995,1.8736471,-15.352899,13.869295,20.774489282689103
245177.68892766497,-0.31586388,-3.0820656,2.9719918,4.293207846431297
245180.0,-7.5209103,14.855173,12.124866,20.597393818600718
245182.82249365482,1.1916683,-12.158366,15.970268,20.10709817748461
245185.13356598985,2.5436614,-8.028207,2.8738825,8.898399944737548
245187.44463832487,-6.424958,15.163858,9.0978365,18.814709769928957
245189.7557106599,-2.864311,-3.3763933,18.822615,19.3363684454768
245192.06678299492,2.7470584,-8.257926,2.7231295,9.118942150724326
245194.37785532995,-6.044486,14.479486,3.4457877,16.06439475056136
245196.68892766497,-6.197632,0.25364825,19.365805,20.334930123808565
245199.0,1.9980782,-13.043742,6.2933483,14.619772730141605
245200.82249365482,-4.405344,9.930569,2.7709875,11.211673744238782
245203.13356598985,-5.96552,3.201711,17.499336,18.763399016138226
245205.44463832487,3.9482985,-18.064064,7.98992,20.142946429149788
245207.7557106599,-3.5462897,5.886554,4.6589923,8.30264402962703
245210.06678299492,-7.4874096,10.366077,18.516323,22.50269033534502
245212.37785532995,5.6089764,-15.704656,7.7721653,18.398461614619226
245214.68892766497,-0.89494765,2.940884,1.3567789,3.3601456785654
245217.0,-9.466345,14.335913,17.350977,24.416930438880375
245219.82249365482,2.0363648,-13.969797,13.608468,19.608478042084553
245222.13356598985,0.26082698,-0.911698,0.9739136,1.3593129356277311
245224.44463832487,-8.009064,16.757536,11.53621,21.86422329083501
245226.7557106599,0.30868515,-10.863803,15.130358,18.629150151115415
245229.06678299492,0.3278284,-5.7621226,3.0629225,6.533836741018524
245231.37785532995,-7.91574,15.223681,9.7415285,19.731111992325047
245233.68892766497,-0.77530223,-9.442415,17.16433,19.60547165790632
245236.0,3.7664373,-13.120315,3.3189635,14.047926336238689
245237.82249365482,-5.372079,12.952811,8.255533,16.272319155487672
245240.13356598985,-3.3716075,-0.107680865,20.397148,20.674210476742456
245242.44463832487,5.1423593,-13.134672,2.8714898,14.394753259065768
245244.7557106599,-5.601798,11.856859,3.2591407,13.512484755998118
245247.06678299492,-8.7053995,6.8078237,20.28229,23.097656409882408
245249.37785532995,3.2088897,-14.005692,6.4297442,15.741600680460158
245251.68892766497,-3.5103962,7.6453414,1.4931747,8.544220110007027
245254.0,-8.0306,9.614705,17.985098,21.917956991166605
245255.82249365482,4.034443,-17.01597,8.430215,19.41361610590294
245258.13356598985,-2.730308,2.5675905,3.048565,4.831237037217202
245260.44463832487,-8.896832,12.979134,17.571125,23.58719934184228
245262.7557106599,4.886318,-18.018599,10.461794,21.40082118093511
245265.06678299492,0.6748001,-4.058372,2.0124357,4.579916583517488
245267.37785532995,-8.576182,16.434492,16.331598,24.705556424189112
245269.68892766497,1.8090385,-8.786758,15.044213,17.515937920488735
245272.0,1.6511066,-4.063158,0.028714897,4.38591273087339
245274.82249365482,-9.420879,17.599838,9.172017,21.968913368830375
245277.13356598985,-3.1299238,-5.807588,17.374907,18.58526014427023
245279.44463832487,2.00765,-10.272755,3.2352118,10.955672010579006
245281.7557106599,-5.9679127,13.096386,7.3581924,16.163981676902356
245284.06678299492,-2.7901309,-3.0605295,18.853724,19.303227189454127
245286.37785532995,4.082301,-14.855173,4.4292727,16.029965781794274
245288.68892766497,-5.9559484,10.59819,6.0014133,13.557725259680529
245291.0,-6.0397,3.9411197,19.614668,20.898459305172526
245292.82249365482,6.5230675,-17.66684,4.3526998,19.329087943927316
245295.13356598985,-3.098816,6.1354165,3.9482985,7.926856708395232
245297.44463832487,-8.401501,10.459401,21.380634,25.241152877270842
245299.7557106599,4.788209,-13.689827,7.85831,16.495191565232275
245302.06678299492,-2.7279153,5.104073,0.028714897,5.787392125872654
245304.37785532995,-10.31822,14.587168,15.113607,23.402398398007694
245306.68892766497,2.3618002,-15.106429,11.040878,18.859567448052594
245309.0,-1.4596739,-2.165582,3.1969252,4.128041185291185
245311.82249365482,-8.332106,13.44575,13.876474,21.04207010088152
245314.13356598985,2.916955,-15.1327505,12.924097,20.113205797005218
245316.44463832487,0.8805902,-7.817631,3.306999,8.53387578644651
245318.7557106599,-8.430215,15.013105,12.579518,21.323839236862906
245321.06678299492,0.3254355,-7.3462276,15.80755,17.434207903376684
245323.37785532995,4.000942,-9.995177,0.9404129,10.807195592343993
245325.68892766497,-7.4778376,14.520166,8.57379,18.446223212452725
245328.0,-4.398165,-0.9786994,19.86353,20.368149939149735
245329.82249365482,3.6611493,-12.237332,3.4529665,13.231752957383868
245332.13356598985,-5.601798,12.153581,3.7951522,13.910170817697741
245334.44463832487,-6.1425953,3.9124048,18.650326,20.021814309520533
245336.7557106599,4.2282686,-15.561081,5.491724,17.034803483882136
245339.06678299492,-5.077751,7.903775,4.9581056,10.622430306167105
245341.37785532995,-7.312727,7.444337,19.684061,22.27905713888761
245343.68892766497,6.8389316,-19.461521,5.8386955,21.438566887845834
245346.0,-1.9861137,2.452731,3.3931437,4.634000556380888
245348.82249365482,-8.592933,13.357213,20.981018,26.31457301546392
245351.13356598985,6.044486,-14.491451,9.4998455,18.351703670598738
245353.44463832487,-0.5814767,0.74658734,0.043072347,0.9472924764650325
245355.7557106599,-10.619726,16.824537,15.09925,24.976608579667996
245358.06678299492,1.5242825,-11.904717,12.821201,17.562144489563234
245360.37785532995,0.019143265,-4.556097,1.665464,4.8509954311769725
245362.68892766497,-8.547467,15.13993,12.072222,21.16636994239383
245365.0,0.8255533,-10.497687,15.187788,18.481122123238457
245366.82249365482,1.797074,-9.727171,2.5651975,10.218980812132061
245369.13356598985,-8.217246,14.474701,10.715443,19.7954747240415
245371.44463832487,-1.0265576,-4.7762446,17.264832,17.942707626592227
245373.7557106599,5.510867,-14.249767,1.2036327,15.325607535183957
245376.06678299492,-6.609212,12.237332,8.356035,16.225205658492992
245378.37785532995,-5.106466,3.0916374,21.502672,22.315893886685757
245380.68892766497,5.888947,-13.627611,2.8284173,15.112624615170896
245383.0,-5.601798,10.722621,3.4745026,12.586775212891178
245385.82249365482,-8.222033,7.6453414,19.37059,22.38912300032636
245388.13356598985,5.053822,-16.764713,5.6640134,18.40319990043668
245390.44463832487,-3.9770133,5.6424775,4.4388447,8.20716329782107
245392.7557106599,-7.958812,10.038249,18.918331,22.847590228794502
245395.06678299492,6.6762137,-19.511772,6.769537,21.705015713940885
245397.37785532995,-2.579555,0.4402951,3.8166883,4.627642310341833
245399.68892766497,-9.875532,14.187552,18.676647,25.44857377532849
245402.0,6.140202,-16.085129,9.317985,19.576983935419417
245403.82249365482,0.28954187,-3.3524642,1.6152129,3.732527751951906
245406.13356598985,-10.837481,16.216738,15.9678755,25.20727342989529
245408.44463832487,1.691786,-10.567082,12.828381,16.70606838683719
245410.7557106599,1.3950654,-5.829124,0.8542682,6.054309889259419
245413.06678299492,-9.617098,15.931982,11.526638,21.890180629062247
245415.37785532995,-0.57429796,-8.502003,15.367256,17.571750912427742
245417.68892766497,2.4670882,-11.318456,2.3139422,11.813056290200944
245420.0,-8.815474,14.283268,10.6963,19.903144482581137
245422.82249365482,-1.9932925,-3.697043,17.803236,18.291980592765267
245425.13356598985,6.458459,-17.372513,1.5482116,18.59873274576052
245427.44463832487,-7.0136137,11.323241,8.863332,15.998913026175643
245429.7557106599,-5.8674107,5.7070856,20.614902,22.180430988549475
245432.06678299492,7.492195,-15.498866,2.4766598,17.392000372841448
245434.37785532995,-6.3388133,9.511809,4.5178103,12.29087769085365
245436.68892766497,-10.1842165,9.842031,19.061907,23.74742382660659
245439.0,5.6065836,-16.850859,4.824103,18.402641072853616
245441.82249365482,-3.8645465,4.761887,4.051193,7.349996746576167
245444.13356598985,-9.373021,11.019341,18.253103,23.29066696918169
245446.44463832487,6.3938503,-20.413898,7.31512,22.607952888919733
245448.7557106599,-2.2947989,-0.9739136,4.115802,4.811905630299723
245451.06678299492,-10.555118,14.881495,17.74102,25.448245520454822
245453.37785532995,5.946377,-16.568495,9.081086,19.80758816541151
245455.68892766497,0.75376606,-5.5515466,1.8808258,5.909766375680609
245458.0,-11.962148,16.274168,16.48953,26.07385910230835
245459.82249365482,1.1940612,-9.789387,13.249532,16.516899775809577
245462.13356598985,2.4838386,-7.286405,0.24646953,7.702071100950276
245464.44463832487,-10.827909,16.40817,11.12463,22.588250235422862
245466.7557106599,-2.1775463,-6.0755935,15.400757,16.698438862328867
245469.06678299492,3.0102785,-12.122473,2.0937946,12.664916269375034
245471.37785532995,-9.461558,13.500788,10.07175,19.319226290687936
245473.68892766497,-3.6898644,-2.4790528,16.71925,17.30011915097914
245476.0,5.8626246,-17.360548,1.2467052,18.36609016411866
245478.82249365482,-8.210068,10.471366,9.2988405,16.233396351811912
245481.13356598985,-6.439316,4.120588,19.911388,21.32855850966361
245483.44463832487,8.427822,-18.774757,1.5218896,20.63579007519027
245485.7557106599,-6.0038066,8.145459,5.829124,11.677880056682401
245488.06678299492,-10.471366,11.25624,20.638832,25.735458635271687
245490.37785532995,6.412994,-16.022913,4.44363,17.82150612677012
245492.68892766497,-4.4460235,5.8171597,3.1107805,7.955088136346234
245495.0,-11.306491,13.6443615,17.836737,25.142683354863543
245496.82249365482,5.7118716,-18.047314,6.633141,20.058154932978347
245499.13356598985,-2.4599094,-0.088537596,3.955477,4.658840141026822
245501.44463832487,-10.854231,14.395735,18.434963,25.78564285805097
245503.7557106599,6.4225655,-18.305746,9.016478,21.392675375997044
245506.06678299492,1.3735292,-6.403422,1.797074,6.791161221382735
245508.37785532995,-11.418958,16.336384,17.365334,26.435295892665472
245510.68892766497,2.9576344,-10.253612,13.29739,17.050065721360355
245513.0,3.2495692,-7.6453414,0.208183,8.309890809729788
245514.82249365482,-11.641498,17.114079,12.266047,24.05976069516183
245517.13356598985,-1.8568966,-4.6039553,15.015498,15.814855344753983
245519.44463832487,4.094266,-10.681942,1.0959519,11.492084647148818
245521.7557106599,-9.387379,13.409857,10.839873,19.63288047908964
245524.06678299492,-2.7566302,-4.1301594,16.968111,17.679762940641524
245526.37785532995,6.501531,-17.331833,1.0552725,18.541195768695886
245528.68892766497,-7.939669,10.500081,10.100465,16.59245123700374
245531.0,-4.8767467,2.5364826,20.28229,21.013987960407793
245532.82249365482,9.406522,-19.832422,1.6534995,22.012307446496116
245535.13356598985,-6.2670264,7.910954,6.99447,12.279308761869007
245537.44463832487,-9.552489,10.330184,20.229645,24.641454591703834
245539.7557106599,7.887025,-16.286133,3.2376046,18.38274666610665
245542.06678299492,-4.8719606,5.9296265,4.6518135,8.974176249452473
245544.37785532995,-11.136594,11.373492,18.43975,24.359893806365413
245546.68892766497,6.695357,-19.215052,4.948534,20.94120382091987
245549.0,-2.421623,0.39482984,4.4292727,5.063457831131678
245551.82249365482,-10.224896,12.361763,19.490236,25.243434433822213
245554.13356598985,7.293584,-20.133928,7.8774533,22.817223642851925
245556.44463832487,-0.0071787243,-4.737958,2.08183,5.175163156147502
245558.7557106599,-12.179902,16.295704,18.39907,27.430380209725858
245561.06678299492,4.2976627,-12.931275,11.607997,17.9006528417431
245563.37785532995,3.050958,-7.4515157,-0.8997334,8.102033765431123
245565.68892766497,-12.433551,17.463444,14.57281,25.921648445012845
245568.0,-0.6484781,-6.2335258,15.929589,17.118094913113616
245569.82249365482,3.7257578,-9.80853,-0.13400285,10.493163903655034
245572.13356598985,-11.174881,15.400757,10.916447,21.93695732413725
245574.44463832487,-3.0126712,-3.9387267,16.338776,17.074699322529177
245576.7557106599,5.5563326,-15.668762,-0.43311638,16.63040962733904
245579.06678299492,-9.461558,11.885574,11.292133,18.92881974098039
245581.37785532995,-4.213911,0.21057591,20.751299,21.175877746086332
245583.68892766497,9.380199,-20.136322,-0.43311638,22.218172444328296
245586.0,-6.9848986,9.442415,7.4347653,13.900494399502165
245588.82249365482,-8.411072,9.58599,22.94081,26.24724937827551
245591.13356598985,9.33952,-17.504122,1.5673548,19.901696457597957
245593.44463832487,-5.3744717,7.5161242,3.0413861,9.727646090046644
245595.7557106599,-11.868824,13.826223,20.868551,27.704329019637093
245598.06678299492,6.793466,-17.499336,5.068179,19.4438776767931
245600.37785532995,-3.7784019,2.706379,2.711165,5.380634150989046
245602.68892766497,-11.878396,13.984155,20.00232,27.143059665027465
245605.0,7.0901866,-19.334698,6.9968634,21.7498825332985
245607.82249365482,-0.78008807,-3.0916374,1.4405307,3.498840937750326
245610.13356598985,-12.278011,15.783622,20.543116,28.668656971411497
245612.44463832487,6.7312503,-16.099485,10.380435,20.304102508008086
245614.7557106599,3.2376046,-7.8128448,-1.9095407,8.670004215672831
245617.06678299492,-13.2016735,17.50173,17.207401,27.869147553671304
245619.37785532995,1.1509888,-7.5400534,15.508437,17.282615504475764
245621.68892766497,3.9937637,-8.47568,-1.7516087,9.531811632200533
245624.0,-12.632162,17.013577,12.218188,24.46052814500368
245625.82249365482,-2.371372,-4.058372,15.829087,16.51223133638628
245628.13356598985,5.391222,-13.180138,-1.5218896,14.321224120406614
245630.44463832487,-10.648441,13.242353,12.806844,21.27826266280746
245632.7557106599,-3.0533507,-2.3211207,20.114786,20.477186516388304
245635.06678299492,9.073908,-19.255732,-2.2254045,21.40260373031534
245637.37785532995,-8.578575,10.495295,8.820259,16.17220253999841
245639.68892766497,-7.5711613,7.011221,23.493572,25.65984467335379
245642.0,9.971248,-18.36557,0.019143265,20.897854305334768
245644.82249365482,-7.154795,8.420644,5.1926107,12.209076244684342
245647.13356598985,-11.852074,12.292369,21.485922,27.44483262699412
245649.44463832487,7.9755626,-16.853252,1.3232782,18.692050902900355
245651.7557106599,-5.0418572,5.333792,4.0727296,8.393854151650004
245654.06678299492,-11.978898,12.88581,22.227724,28.34801246773184
245656.37785532995,8.430215,-20.471329,3.9626558,22.491031033764095
245658.68892766497,-2.031579,-0.7681235,2.1919038,3.0857364133943275
245661.0,-12.596269,15.680727,22.632124,30.27811468239504
245662.82249365482,8.418251,-18.090385,7.63577,21.364315173675145
245665.13356598985,1.4213874,-5.1902175,-0.3613291,5.393445888918496
245667.44463832487,-14.357449,18.224388,20.490473,30.95358046375046
245669.7557106599,3.8406174,-10.746551,11.19881,15.98912273468697
245672.06678299492,3.541504,-7.159581,-2.8212388,8.471200566873769
245674.37785532995,-13.828616,18.145422,16.587639,28.207033300718827
245676.68892766497,-0.071787246,-6.968148,15.238039,16.755836968773398
245679.0,4.2737336,-10.880553,-2.0483294,11.86789306492447
245681.82249365482,-12.64652,15.857802,14.0463705,24.671945132171363
245684.13356598985,-1.8975761,-3.9387267,16.587639,17.154128676995082
245686.44463832487,7.6644845,-16.987255,-3.2687125,18.9207726188288
245688.7557106599,-10.849445,12.050685,13.519931,21.11203448325175
245691.06678299492,-4.6518135,2.0459363,21.902288,22.48411536657344
245693.37785532995,10.397185,-18.33207,-2.6704855,21.243769421052264
245695.68892766497,-8.793938,10.600583,8.305784,16.083897330634418
245698.0,-9.394557,9.612311,22.498121,26.207244657109815
245699.82249365482,9.236626,-16.896324,-1.0026284,19.282279125801974
245702.13356598985,-6.7360363,7.817631,5.34815,11.622919078681512
245704.44463832487,-11.265811,11.564925,22.435905,27.641197892138667
245706.7557106599,8.712579,-19.784565,1.2610626,21.654752918276042
245709.06678299492,-4.9150333,3.0389934,4.1301594,7.10290432814358
245711.37785532995,-12.254083,14.434022,23.297354,30.021163279737994
245713.68892766497,9.932961,-20.239216,3.6324344,22.836027636007106
245716.0,-0.7681235,-2.658521,0.7609448,2.869979896678771
245718.82249365482,-14.261732,17.73384,23.539038,32.74098945894684
245721.13356598985,7.1452236,-14.410092,8.47568,18.180817451502584
245723.44463832487,2.1512244,-5.072965,-2.1919038,5.9301924571496665
245725.7557106599,-14.637419,18.911152,19.241373,30.693910468915394
245728.06678299492,2.6441634,-9.80853,12.134437,15.825404328287116
245730.37785532995,2.9839563,-7.6668777,-2.163189,8.506726486539224
245732.68892766497,-13.85733,17.762556,17.23851,28.3672384521676
245735.0,0.9691278,-8.339285,14.4388075,16.70215689741939
245736.82249365482,6.3148847,-14.654169,-3.799938,16.403108445008193
245739.13356598985,-12.239725,14.57281,15.604154,24.610308438283354
245741.44463832487,-1.7587874,-2.3641932,20.179394,20.393398069290978
245743.7557106599,9.511809,-17.630947,-3.2447834,20.29417211620631
245746.06678299492,-10.701085,12.730271,11.167702,20.032238713420675
245748.37785532995,-6.8030376,5.5611186,21.036055,22.79743342206102
245750.68892766497,9.58599,-16.767107,-2.7015932,19.501940602099967
245753.0,-8.633613,10.205753,8.509181,15.846224440589594
245755.82249365482,-9.0428,8.013849,22.110472,25.19656682362867
245758.13356598985,9.114587,-19.236588,-0.70830077,21.298443700024084
245760.44463832487,-6.8963614,6.3483853,6.6163907,11.473378855930477
245762.7557106599,-10.227289,10.552725,22.66084,27.008722937613065
245765.06678299492,10.681942,-22.00279,0.5072965,24.463932684962494
245767.37785532995,-3.3931437,0.63412064,3.7951522,5.130176739264305
245769.68892766497,-12.421586,15.013105,24.474665,31.28415489283107
245772.0,9.5907755,-17.8152,4.7259936,20.777375706249362
245774.82249365482,-0.92366254,-1.5841051,0.5814767,1.9237090757929463
245777.13356598985,-14.558453,17.836737,20.949911,31.128708798604208
245779.44463832487,5.5898333,-13.232781,7.343835,16.13333945043539
245781.7557106599,0.54079723,-3.804724,-0.33022133,3.8571274916624994
245784.06678299492,-13.859724,17.209795,19.741491,29.6309881745662
245786.37785532995,4.4914885,-13.7329,10.533582,17.8807818930369
245788.68892766497,3.4984317,-10.476151,-2.08183,11.239340740597996
245791.0,-13.204067,16.07077,18.8609,28.077581493842896
245792.82249365482,2.7949166,-9.203125,15.759693,18.462854384434426
245795.13356598985,7.157188,-14.429235,-2.967206,16.377804315566998
245797.44463832487,-13.022206,16.121021,15.429471,25.836674370528378
245799.7557106599,-2.395301,-0.22014755,18.131065,18.289927552032484
245802.06678299492,8.760436,-14.788172,-4.3048415,17.719112007993015
245804.37785532995,-11.210774,13.960226,12.000434,21.554112828843316
245806.68892766497,-5.75973,2.8762755,21.229881,22.184573417105888
245809.0,8.382357,-17.252867,-2.371372,19.32740887334673
245810.82249365482,-9.937747,11.674998,9.145695,17.852398459843933
245813.13356598985,-7.654913,6.917897,21.36867,23.7292024625582
245815.44463832487,10.428293,-21.09827,-2.3019776,23.64710114913984
245817.7557106599,-7.310334,6.2095966,7.609448,12.243519591644862
245820.06678299492,-10.203361,11.060021,24.74267,28.959149831196047
245822.37785532995,11.143773,-20.576616,0.45225963,23.404814493174538
245824.68892766497,-4.6207056,3.2998202,3.1586387,6.497440421530396
245827.0,-13.496001,16.003769,22.837915,30.981172133161568
245828.82249365482,8.243568,-16.412956,3.6755068,18.73101407466788
245831.13356598985,-2.998314,1.457281,1.9430413,3.8586220661089223
245833.44463832487,-13.974584,16.618746,21.4261,30.50490907699238
245835.7557106599,7.1212945,-17.473015,5.0657864,19.536665027490752
245838.06678299492,-0.35893622,-4.2737336,-0.25125536,4.2961335349038645
245840.37785532995,-13.723328,16.487137,22.036291,30.75310616651648
245842.68892766497,7.0279713,-16.530209,10.480937,20.796399461812463
245845.0,3.4505734,-9.566847,-1.4357449,10.270948433716944
245847.82249365482,-14.328733,18.34164,19.48545,30.354754305996106
245850.13356598985,2.9002047,-7.2840123,12.854702,15.056938134868503
245852.44463832487,5.5012956,-9.69367,-3.491253,11.679911765826331
245854.7557106599,-14.33352,17.54241,16.697712,28.142486212725483
245857.06678299492,-0.8518753,-4.9604983,16.4321,17.185637763000038
245859.37785532995,6.8365383,-13.419429,-3.984192,15.578610865743833
245861.68892766497,-11.801823,15.4199,13.842974,23.847101947574366
245864.0,-2.215833,-1.9861137,19.478271,19.704253466260976
245865.82249365482,8.334499,-18.62879,-2.9265265,20.616989300096733
245868.13356598985,-11.880789,12.435944,12.06265,21.00745999534825
245870.44463832487,-6.31967,4.814531,21.581638,22.99750065598227
245872.7557106599,11.081557,-19.471092,-3.936334,22.74684713485078
245875.06678299492,-8.793938,8.760436,8.513967,15.052116745993867
245877.37785532995,-9.353878,8.619255,24.14923,27.29417337064468
245879.68892766497,10.368471,-18.956617,-0.8638398,21.624170230614496
245882.0,-6.9346476,7.547232,5.448652,11.607663710459299
245884.82249365482,-11.282561,12.799665,22.644089,28.352819497730152
245887.13356598985,9.296448,-19.289232,0.17468229,21.413288642078488
245889.44463832487,-5.5587254,3.4194658,3.7616515,7.53274162821393
245891.7557106599,-12.412014,14.094229,23.670647,30.21597114175293
245894.06678299492,10.421115,-21.08152,3.4075012,23.76217977757147
245896.37785532995,-1.6870002,-2.2517266,1.8545038,3.369781402429843
245898.68892766497,-13.787936,16.87718,24.053513,32.45794003835833
245901.0,8.837009,-16.190416,6.5182815,19.562982697747785
245902.82249365482,1.0385221,-4.0535865,-1.5003533,4.445351694747171
245905.13356598985,-15.290683,19.049942,21.009733,32.21977898032732
245907.44463832487,4.692493,-11.698928,9.916211,16.03794399231878
245909.7557106599,2.1296883,-6.092344,-2.163189,6.806733013657425
245912.06678299492,-14.374199,18.030563,19.061907,29.9178056926844
245914.37785532995,3.7879734,-11.694141,12.481409,17.518197590855902
245916.68892766497,4.824103,-12.282797,-3.43143,13.635020489266527
245919.0,-13.82383,16.771893,18.188494,28.34106534095684
245921.82249365482,1.6606783,-6.369921,17.458658,18.658469527892578
245924.13356598985,8.1622095,-15.632869,-4.4292727,18.183143670554237
245926.44463832487,-13.275854,15.668762,14.237803,24.989466507085922
245928.7557106599,-3.4290373,1.3759222,20.330147,20.663163740019414
245931.06678299492,8.784366,-14.85278,-4.2330546,17.767636618215075
245933.37785532995,-11.742,14.259339,10.748943,21.371548571270402
245935.68892766497,-5.9559484,3.6515777,20.925982,22.061370395034935
245938.0,9.083479,-18.281818,-3.4529665,20.704043995767766
245940.82249365482,-9.961677,10.461794,10.165073,17.66388551384134
245943.13356598985,-6.824574,5.826731,23.527073,25.18032502520899
245945.44463832487,11.311276,-21.60796,-2.4886243,24.516161017099037
245947.7557106599,-7.8272023,7.0447216,7.030364,12.661722483103468
245950.06678299492,-10.232075,12.084186,24.402876,29.089916932841128
245952.37785532995,11.562531,-19.41845,-0.59583414,22.608037107428203
245954.68892766497,-5.3816504,4.347914,4.477131,8.240826364532696
245957.0,-12.591482,14.4388075,23.512714,30.329396641281477
245958.82249365482,9.246197,-17.415585,1.9717562,19.816220183659457
245961.13356598985,-3.9985495,2.6752713,2.8738825,5.60398744255911
245963.44463832487,-12.806844,15.52758,22.09372,29.887346107259777
245965.7557106599,8.973405,-18.767578,3.936334,21.17164865190392
245968.06678299492,-1.6008555,-2.7877378,1.6487137,3.6128212297312445
245970.37785532995,-13.4529295,15.663977,22.988668,30.90016737823152
245972.68892766497,8.839402,-17.66684,7.360585,21.08151974705403
245975.0,1.8545038,-6.9131117,-1.067237,7.236663080112293
245977.82249365482,-14.68767,17.72427,20.935553,31.115507009811186
245980.13356598985,5.0418572,-10.957127,11.414171,16.606090922807866
245982.44463832487,3.4673238,-7.78413,-2.1512244,8.78878720928558
245984.7557106599,-14.6900625,17.729055,17.465836,28.899355609179715
245987.06678299492,2.0339718,-8.217246,12.629769,15.204316429917927
245989.37785532995,4.455595,-10.4354725,-2.057901,11.531971627960338
245991.68892766497,-13.546252,15.786015,17.74102,27.339403860876867
245994.0,1.9669704,-8.009064,15.608939,17.653698066305914
245995.82249365482,8.243568,-16.436886,-4.0057282,18.819497686173648
245998.13356598985,-12.354585,13.426607,15.654405,24.0410054273672
246000.44463832487,-1.4142087,-1.8927903,19.91378,20.053460430941335
246002.7557106599,9.916211,-17.111687,-3.1562457,20.02755500557316
246005.06678299492,-11.880789,13.6443615,12.706342,22.10820831786618
246007.37785532995,-5.6329055,5.053822,19.535702,20.95028385994849
246009.68892766497,9.566847,-15.331362,-3.9243693,18.49259031880703
246012.0,-10.397185,11.275383,10.873374,18.800690941154
246014.82249365482,-6.5254602,3.8501892,20.770443,22.10920374219365
246017.13356598985,10.177038,-20.665154,-2.3235137,23.15209295530855
246019.44463832487,-8.719757,7.8128448,9.779816,15.255146902006286
246021.7557106599,-7.9827414,8.348856,23.239923,25.952294268791324
246024.06678299492,11.940612,-21.076735,-1.5290682,24.272309794393696
246026.37785532995,-6.9633627,4.97007,5.675978,10.26677856745412
246028.68892766497,-12.105722,13.493608,22.921667,29.22377080490875
246031.0,10.11243,-17.346191,1.0313433,20.105105115761916
246032.82249365482,-4.9963923,3.2615337,3.905226,7.1310818395816336
246035.13356598985,-12.979134,13.656326,21.93818,28.91776099425113
246037.44463832487,8.930333,-18.202852,2.4694812,20.425303077847985
246039.7557106599,-3.7161863,0.52165395,3.0078855,4.809317897682429
246042.06678299492,-12.90256,14.209088,22.76852,29.778847179428286
246044.37785532995,9.918604,-19.590738,4.967677,22.51340790439753
246046.68892766497,-0.64369226,-3.9770133,1.1940612,4.201994367357748
246049.0,-14.35027,16.709677,22.962345,31.81843557462016
246051.82249365482,8.298605,-14.850388,7.731486,18.68627155065357
246054.13356598985,2.3641932,-5.912876,-1.8951832,6.644037284653397
246056.44463832487,-15.161466,17.578302,20.598152,31.03466800672216
246058.7557106599,4.6589923,-10.940375,11.220346,16.349133883842295
246061.06678299492,2.711165,-6.427351,-1.5984626,7.156559174493338
246063.37785532995,-14.654169,17.867846,18.494787,29.598340087505683
246065.68892766497,3.543897,-9.909033,11.806608,15.815945542627606
246068.0,4.7259936,-11.201202,-3.2854629,12.593498648879166
246069.82249365482,-14.154052,15.498866,18.480429,27.965662719283106
246072.13356598985,2.5867336,-8.217246,16.379456,18.50677987651609
246074.44463832487,7.860703,-15.163858,-3.1155663,17.36202737205735
246076.7557106599,-13.565396,14.68767,16.207167,25.737518933098524
246079.06678299492,-1.4788172,-0.7968384,17.250475,17.332072567132744
246081.37785532995,8.549861,-13.467287,-4.393379,16.545988072561002
246083.68892766497,-12.864274,13.287819,13.814259,23.084398000444324
246086.0,-3.9195836,-0.25364825,18.57136,18.982172828254328
246087.82249365482,8.348856,-15.833873,-3.7640445,18.291609051334035
246090.13356598985,-11.483566,11.852074,12.529266,20.720194320435027
246092.44463832487,-4.453202,1.691786,20.54551,21.09054596454772
246094.7557106599,10.246432,-19.571596,-3.4721096,22.362743208118545
246097.06678299492,-10.5862255,9.82528,10.275147,17.725206438483564
246099.37785532995,-7.884632,7.8559175,22.8092,25.379961902694617
246101.68892766497,11.229918,-18.523502,-2.68245,21.827201438416882
246104.0,-8.537896,7.374943,6.8604674,13.20422149566296
246106.82249365482,-10.52401,9.947319,22.813986,27.02187815411906
246109.13356598985,9.629062,-17.496944,-0.3565433,19.974709195974665
246111.44463832487,-7.420408,6.3435993,6.221561,11.576334836300543
246113.7557106599,-10.59819,10.356506,22.787664,27.181914545907762
246116.06678299492,10.52401,-20.155464,-0.42115182,22.741479379998246
246118.37785532995,-5.757337,3.0796728,4.6207056,7.99888955596339
246120.68892766497,-11.6726055,12.395264,24.733099,30.026962465959276
246123.0,11.674998,-20.46415,2.2062612,23.663359905244427
246124.82249365482,-2.8906329,0.2680057,2.4048727,3.7697477794940326
246127.13356598985,-13.95544,15.915232,24.66849,32.505127504557244
246129.44463832487,9.554882,-15.915232,4.189982,19.030142637617615
246131.7557106599,-0.92366254,-0.05025107,-0.3828653,1.0011311081868781
246134.06678299492,-14.166016,16.585245,22.69434,31.476648948988853
246136.37785532995,7.6142335,-16.063593,6.7767158,19.024706276212015
246138.68892766497,-0.9667349,-2.2612982,0.011964541,2.4593066231038763
246141.0,-14.393342,17.465836,22.385654,31.833021002028318
246143.82249365482,8.1119585,-15.704656,7.8248096,19.33048721735462
246146.13356598985,1.9047549,-6.99447,-2.0722585,7.539559476573963
246148.44463832487,-15.221289,16.93461,22.299511,31.87062668842177
246150.7557106599,5.9559484,-11.660641,11.564925,17.469726962089833
246153.06678299492,4.1038375,-7.9444547,-3.2830698,9.525460094842158
246155.37785532995,-15.060964,17.327047,19.389734,30.05030746831488
246157.68892766497,3.098816,-8.037778,12.715914,15.359134241048093
246160.0,4.2067323,-7.958812,-3.618077,9.702049591356266
246161.82249365482,-14.168408,16.441671,17.784094,28.059692263593
246164.13356598985,2.656128,-8.810688,14.223446,16.94076902329537
246166.44463832487,5.798016,-12.699163,-3.8454032,14.480084813542884
246168.7557106599,-13.991334,15.245217,17.762556,27.270542057864947
246171.06678299492,1.3831009,-5.3313994,17.465836,18.31371657640243
246173.37785532995,8.703007,-14.9413185,-4.8097453,17.947673364850477
246175.68892766497,-13.369178,14.512987,14.618276,24.55719253640426
246178.0,-2.5436614,0.18425392,19.413664,19.58046252594104
246180.82249365482,8.657541,-13.29739,-4.1612673,16.403955087747292
246183.13356598985,-12.376121,14.271304,12.648912,22.733971576713138
246185.44463832487,-3.697043,0.5001178,19.777386,20.126182990093323
246187.7557106599,9.239018,-16.853252,-4.587205,19.759402984195983
246190.06678299492,-11.34717,11.861646,11.713285,20.16576203195508
246192.37785532995,-4.5034533,1.7109293,23.06524,23.562972370914483
246194.68892766497,11.306491,-20.413898,-3.2304258,23.558429937854317
246197.0,-10.361292,10.717835,9.739136,17.806715840462694
246198.82249365482,-7.9994917,8.805902,24.063084,26.843393769846408
246201.13356598985,12.361763,-18.030563,-3.7114005,22.174058722672722
246203.44463832487,-7.98992,8.4541445,6.637927,13.393037582662465
246205.7557106599,-9.968855,8.930333,24.618238,28.02118055554687
246208.06678299492,10.464187,-18.277033,-1.2730271,21.099046017566586
246210.37785532995,-7.7171288,8.444572,6.353171,13.085398539372596
246212.68892766497,-9.995177,10.68912,24.271267,28.341758086276478
246215.0,11.828145,-21.12938,-1.1868824,24.24385289422568
246217.82249365482,-5.620941,4.661385,4.508239,8.581824207289905
246220.13356598985,-11.820966,13.924333,26.44642,32.140868337436764
246222.44463832487,12.172724,-19.822851,1.4644598,23.308051695802313
246224.7557106599,-3.328535,1.978935,1.4453164,4.133312046840761
246227.06678299492,-14.252161,16.338776,24.51295,32.72559261572809
246229.37785532995,9.284483,-15.994198,4.082301,18.938880001074352
246231.68892766497,-2.711165,1.6439278,0.94280577,3.3078387186776705
246234.0,-14.221053,16.11863,22.672804,31.242673104715685
246235.82249365482,8.889653,-17.138008,4.194768,19.756855196166644
246238.13356598985,-1.0313433,-2.1823323,-0.0071787243,2.413771903921486
246240.44463832487,-13.931511,14.929354,24.386126,31.80653629190568
246242.7557106599,9.877925,-18.442142,7.599876,22.258574057409092
246245.06678299492,2.1990826,-6.190453,-1.8425392,6.822948287241256
246247.37785532995,-15.163858,17.451479,23.144207,32.71316289187663
246249.68892766497,6.6211767,-11.605604,10.480937,16.981756843607435
246252.0,3.6587565,-5.757337,-3.9674416,7.891389060695956
246254.82249365482,-15.4845085,18.245924,19.645775,30.961915661841296
246257.13356598985,3.5917552,-9.274912,12.40005,15.896098201350263
246259.44463832487,3.4266443,-7.336656,-3.254355,8.72692608465796
246261.7557106599,-14.934139,17.26244,19.231802,29.847655696756572
246264.06678299492,3.749687,-9.801352,13.900403,17.416884256039655
246266.37785532995,6.271812,-12.725485,-4.6589923,14.932508278920468
246268.68892766497,-14.713992,14.903031,18.722113,28.091269261957425
246271.0,1.5721406,-6.24549,17.439514,18.59070789298956
246273.82249365482,9.076301,-14.151658,-5.841089,17.797948890180745
246276.13356598985,-13.697006,14.5393095,15.245217,25.12799505487685
246278.44463832487,-2.1703677,-1.4118158,19.588346,19.758720070441022
246280.7557106599,8.387143,-12.871452,-4.5537043,16.023565993329683
246283.06678299492,-13.180138,15.151894,13.570182,24.237280561139773
246285.37785532995,-3.381179,0.088537596,19.274874,19.569388801181873
246287.68892766497,9.557275,-16.400991,-5.5324035,19.772240634144588
246290.0,-12.163152,12.182295,13.084421,21.622965822184753
246291.82249365482,-4.29527,1.0193789,22.988668,23.408702102613233
246294.13356598985,11.703713,-19.590738,-4.008121,23.169785223899986
246296.44463832487,-10.832695,11.014556,10.404365,18.625749270657167
246298.7557106599,-8.040172,7.853524,23.828579,26.346221402079674
246301.06678299492,11.5314245,-16.590033,-4.0751224,20.61090896868139
246303.37785532995,-9.093051,9.6410265,6.793466,14.892419170687456
246305.68892766497,-9.920997,8.004277,23.551,26.77954877825125
246308.0,10.251218,-18.425392,-1.6463208,21.14930053249281
246310.82249365482,-8.559432,8.073672,6.905933,13.643312146494964
246313.13356598985,-10.057393,9.368236,24.110943,27.75342451045265
246315.44463832487,12.045899,-21.08152,-1.8353605,24.34959376239286
246317.7557106599,-6.2813835,4.0559793,4.225876,8.588642193238506
246320.06678299492,-12.287583,12.426372,26.082699,31.395964775570665
246322.37785532995,11.988469,-18.92551,1.8736471,22.481300477939424
246324.68892766497,-4.0918727,2.8188457,2.2182257,5.4414923072218215
246327.0,-14.139694,14.910211,23.840544,31.474066732694286
246328.82249365482,9.815709,-15.929589,2.1488314,18.833943433790704
246331.13356598985,-3.1083877,1.8066456,1.2179902,3.795990324646085
246333.44463832487,-13.878867,13.141851,24.551237,31.114215965376005
246335.7557106599,9.995177,-19.614668,4.1516957,22.402574432349322
246338.06678299492,-1.1773108,-1.9837208,-0.36850783,2.336023748363999
246340.37785532995,-14.355056,15.565867,24.74267,32.566294952814715
246342.68892766497,9.856388,-17.398834,7.4826236,21.35081883454068
246345.0,1.0959519,-4.225876,-2.1225095,4.854295532008724
246346.82249365482,-16.336384,18.53068,22.766129,33.59404966809594
246349.13356598985,6.5852833,-11.134201,9.054764,15.790032905138478
246351.44463832487,3.046172,-4.8576035,-3.8190813,6.889184102112959
246353.7557106599,-15.630476,16.202381,21.572067,31.179849337484395
246356.06678299492,4.9963923,-13.117922,11.720464,18.286965029465094
246358.37785532995,3.594148,-7.753022,-4.118195,9.486136201658343
246360.68892766497,-14.783386,16.757536,20.370827,30.237958050771567
246363.0,4.9389625,-11.694141,14.546489,19.306647211036108
246364.82249365482,6.1545596,-11.739607,-4.8599963,14.117950999363003
246367.13356598985,-15.314611,17.406013,18.899189,29.911301267166746
246369.44463832487,1.7659662,-4.682921,16.905895,17.631156271294532
246371.7557106599,8.437394,-12.0650425,-6.1856675,15.969262677362362
246374.06678299492,-14.493844,14.840816,16.173666,26.304159468071738
246376.37785532995,-1.2275618,-4.118195,18.592896,19.083034866018043
246378.68892766497,7.97317,-12.670448,-4.97007,15.773816538000688
246381.0,-13.318927,14.998748,15.123179,25.12104299317355
246383.82249365482,-1.4548881,-2.833203,19.968819,20.221213387863045
246386.13356598985,9.94014,-16.336384,-6.1378093,20.083737909518298
246388.44463832487,-12.352192,13.728114,12.4574795,22.276143218582078
246390.7557106599,-3.7257578,1.5769265,23.184887,23.53522792694883
246393.06678299492,11.612783,-18.360785,-4.4173083,22.169523392228413
246395.37785532995,-11.849681,11.727643,10.193789,19.541389006765385
246397.68892766497,-7.7984877,6.31967,23.07242,25.16130370176298
246400.0,11.143773,-15.958304,-4.7977805,20.046691521498634
246401.82249365482,-10.064571,9.952105,7.748236,16.136144039291484
246404.13356598985,-8.389536,4.6996713,24.144444,25.98894766419902
246406.44463832487,11.261025,-19.495022,-2.4623024,22.647946925497568
246408.7557106599,-9.014085,8.77958,7.6764493,14.739831315829075
246411.06678299492,-8.659934,7.7123427,25.379183,27.903003719207156
246413.37785532995,13.706577,-21.265774,-2.8714898,25.462695272643646
246415.68892766497,-7.032757,5.953555,4.6159196,10.305881908538353
246418.0,-12.100936,11.51946,27.157114,31.884784013329806
246420.82249365482,12.747022,-18.81065,0.40679437,22.72647365849897
246423.13356598985,-5.0873227,5.6185484,2.2947989,7.919282819076426
246425.44463832487,-13.565396,13.943476,25.608902,32.15985623794043
246427.7557106599,10.973877,-17.676413,1.3328499,20.84845418283159
246430.06678299492,-4.087087,4.276127,0.6269419,5.948327362517435
246432.37785532995,-13.395499,13.816651,25.561045,31.995409980289782
246434.68892766497,11.426136,-20.803944,4.2354474,24.110157289486914
246437.0,-2.5580187,0.06221561,-0.07896597,2.559993374228809
246439.82249365482,-15.151894,16.680962,25.630438,34.12848864371999
246442.13356598985,11.138988,-17.042292,5.826731,21.17705277945373
246444.44463832487,0.44747382,-2.2493336,-2.658521,3.511049468622644
246446.7557106599,-16.274168,16.331598,24.340662,33.52666795140954
246449.06678299492,8.121531,-14.244982,8.908797,18.661335481457215
246451.37785532995,1.5721406,-2.237369,-3.6037195,4.523741851941776
246453.68892766497,-15.398363,16.286133,21.90468,31.33947537971652
246456.0,7.087794,-15.17343,10.397185,19.712210877412026
246457.82249365482,2.010043,-5.4893312,-3.5199678,6.823723558159378
246460.13356598985,-16.085129,17.24569,22.026718,32.26951354412187
246462.44463832487,6.544604,-12.711128,12.598661,19.055993165986415
246464.7557106599,5.2021823,-9.004513,-5.415151,11.72466696338976
246467.06678299492,-16.35792,16.238274,20.02864,30.535381272796904
246469.37785532995,3.2208543,-8.542682,15.769264,18.221443556333522
246471.68892766497,6.8221807,-9.073908,-5.903304,12.795583379132523
246474.0,-15.154287,15.757299,16.88436,27.622934291334257
246476.82249365482,0.885376,-7.305548,17.094934,18.611600971062
246479.13356598985,6.295741,-9.827674,-5.0107493,12.701462102325365
246481.44463832487,-14.888674,16.582853,16.307669,27.615280105612655
246483.7557106599,0.7992313,-6.1306305,18.566574,19.568880169695607
246486.06678299492,9.215089,-14.498631,-6.2119894,18.267922116589897
246488.37785532995,-14.139694,14.024835,14.656562,24.727348277781523
246490.68892766497,-1.6846073,-3.1107805,22.514872,22.791101734027198
246493.0,10.780051,-15.108822,-4.869568,19.188504222500228
246494.82249365482,-13.359606,14.204303,11.756357,22.769567982342
246497.13356598985,-4.9604983,1.433352,22.084148,22.679740611967123
246499.44463832487,10.411543,-13.541467,-5.3313994,17.894003903969015
246501.7557106599,-11.840109,13.239961,9.719993,20.24754336539253
246504.06678299492,-5.281148,0.055036888,23.416998,24.005194200192356
246506.37785532995,10.811159,-17.72427,-3.2136755,21.00853674522529
246508.68892766497,-11.674998,12.335442,9.353878,19.38978445662179
246511.0,-6.424958,3.929155,24.309553,25.44941475507046
246513.82249365482,13.220818,-18.91594,-3.441002,23.333309011726733
246516.13356598985,-9.995177,9.772636,6.793466,15.542173526987176
246518.44463832487,-9.674527,6.848503,25.848194,28.436378093498018
246520.7557106599,12.294762,-16.611568,-1.1366314,20.6977606275349
246523.06678299492,-8.303391,9.595561,3.986585,13.300900456955048
246525.37785532995,-10.236861,7.29837,23.357176,26.525783654497314
246527.68892766497,11.447672,-18.064064,0.39482984,21.389611801485188
246530.0,-8.166995,8.492431,4.8958898,12.758954837819985
246531.82249365482,-10.399578,8.205282,24.493807,27.846444236757716
246534.13356598985,13.093993,-20.459364,0.80641,24.30408453442847
246536.44463832487,-6.369921,5.4701877,2.187118,8.676539181343925
246538.7557106599,-12.790093,10.926019,24.75942,29.933146324324312
246541.06678299492,12.54841,-18.516323,4.2569833,22.7692493900196
246543.37785532995,-4.5656686,4.9102473,1.3256711,6.834710101939837
246545.68892766497,-13.979369,12.766165,22.316261,29.26453880493433
246548.0,11.031306,-16.50628,4.2569833,20.304405884450667
246550.82249365482,-3.5486827,4.084694,0.84948236,5.477179407219236
246553.13356598985,-13.330891,10.483331,22.79963,28.415418558352115
246555.44463832487,11.459637,-20.861372,6.300527,24.621469541273974
246557.7557106599,-2.4766598,1.8880045,0.54797596,3.162069323986148
246560.06678299492,-14.642204,14.85996,23.448107,31.385128182989234
246562.37785532995,11.533817,-18.245924,7.934883,22.99793567751145
246564.68892766497,0.023929082,-0.09571633,-2.1751535,2.1773899433395667
246567.0,-16.484743,16.709677,21.430885,31.78431828911237
246568.82249365482,8.375178,-14.335913,10.739371,19.773621255371864
246571.13356598985,0.95955616,-0.32064968,-2.000471,2.2417512045985495
246573.44463832487,-15.747728,15.869766,19.095407,29.40195535253377
246575.7557106599,7.305548,-15.462972,11.194024,20.439684634691996
246578.06678299492,1.277813,-2.6848428,-1.6582853,3.4045700256973612
246580.37785532995,-15.652012,16.176058,19.569202,29.82623004981206
246582.68892766497,7.741058,-15.52758,13.125101,21.755413024715597
246585.0,4.5393467,-7.0231853,-3.6348274,9.118265758834173
246587.82249365482,-15.929589,16.183237,17.922882,28.928855226106236
246590.13356598985,4.979642,-10.772872,16.63071,20.431155637424137
246592.44463832487,5.9870563,-6.8365383,-3.0557437,9.587526721048878
246594.7557106599,-15.532367,16.75275,14.737921,27.186676379937104
246597.06678299492,2.08183,-7.6908064,15.841051,17.73193210047292
246599.37785532995,5.623334,-6.855682,-3.2495692,9.443620118697524
246601.68892766497,-14.812101,15.482116,14.082264,25.639898814881327
246604.0,2.1057591,-10.12918,18.121492,20.866791348113317
246606.82249365482,7.702771,-11.952576,-2.2254045,14.392677975374745
246609.13356598985,-14.460343,15.821908,14.048763,25.628149255618947
246611.44463832487,0.28475606,-4.36945,20.18418,20.653675256200934
246613.7557106599,10.423508,-12.368942,-3.771223,16.609104977124957
246616.06678299492,-13.663506,15.072928,10.46658,22.878676788696065
246618.37785532995,-3.4290373,-1.0815945,21.232273,21.534566636311737
246620.68892766497,9.32277,-11.409386,-0.9954498,14.76749977735622
246623.0,-12.624983,14.529737,9.39695,21.419760090672305
246624.82249365482,-3.878904,-1.4524952,19.947283,20.37276951298787
246627.13356598985,10.401972,-14.962854,-1.4189945,18.278445412702094
246629.44463832487,-11.897539,12.914525,9.844424,20.130799142704742
246631.7557106599,-5.1160374,0.6269419,22.71827,23.29563664330886
246634.06678299492,12.601054,-17.499336,-1.328064,21.60502433092608
246636.37785532995,-10.784837,11.617569,6.4153867,17.10081299520192
246638.68892766497,-8.961441,5.6951213,23.06524,25.39187129133642
246641.0,12.237332,-15.585011,1.1677392,19.849646777400388
246642.82249365482,-8.750865,10.648441,5.1016803,14.69673691205344
246645.13356598985,-9.9927845,6.7288575,21.749142,24.862792342271423
246647.44463832487,11.615176,-16.089914,1.5529974,19.905010599413878
246649.7557106599,-8.013849,8.85376,4.661385,12.819491099518187
246652.06678299492,-10.270362,6.0277357,22.469406,25.43006368991109
246654.37785532995,12.833166,-20.06932,3.0916374,24.021365004075744
246656.68892766497,-6.692964,6.412994,3.8214743,10.026261764730288
246659.0,-12.7542,10.6963,23.65629,28.925775839104126
246660.82249365482,13.122708,-16.953754,4.3909864,21.884149549634433
246663.13356598985,-4.0679436,4.922212,0.7059079,6.424534385386024
246665.44463832487,-14.752278,11.9645405,21.284918,28.527664990884695
246667.7557106599,10.33497,-14.68767,6.6283555,19.14351983215679
246670.06678299492,-3.3237493,4.395772,1.2849916,5.658738754997005
246672.37785532995,-13.88126,11.036092,20.428257,27.051772398090904
246674.68892766497,10.940375,-17.607018,7.2576904,21.962990641877557
246677.0,-2.00765,1.2730271,0.9093051,2.5452096740191013
246679.82249365482,-15.00832,13.024599,21.313633,29.140363758743472
246682.13356598985,10.794409,-15.43665,9.411307,21.05664095552826
246684.44463832487,1.0576653,-0.87580436,-1.3783151,1.94562115498036
246686.7557106599,-16.159307,14.180373,19.085835,28.748483069313465
246689.06678299492,7.5639825,-11.158131,12.1152935,18.12451531116376
246691.37785532995,2.268477,-0.9475916,-0.6460852,2.54191735223209
246693.68892766497,-15.180609,13.431393,16.92504,26.4066314878087
246696.0,6.3771,-11.663034,11.9645405,17.884182840468174
246697.82249365482,2.8499537,-3.43143,-0.59583414,4.50021846796722
246700.13356598985,-14.907818,12.656091,17.401228,26.176753290455807
246702.44463832487,6.2383113,-12.19426,13.685041,19.362253277833876
246704.7557106599,5.43908,-6.877218,-1.61282,8.915206504524951
246707.06678299492,-15.513223,13.364391,16.176058,26.094671622152557
246709.37785532995,3.0054924,-6.750394,16.209558,17.81433620085401
246711.68892766497,7.1978674,-6.0851655,-1.4788172,9.540725055329329
246714.0,-14.474701,13.704185,13.096386,23.850303600051344
246716.82249365482,0.46422416,-4.376629,15.585011,16.19453467514549
246719.13356598985,7.16676,-7.0519004,-0.7394086,10.0815908083434
246721.44463832487,-13.204067,11.462029,13.3524275,22.00029123171069
246723.7557106599,0.49533197,-6.9035397,17.200224,18.54054799082692
246726.06678299492,8.848974,-11.220346,-0.5838696,14.3017974018022
246728.37785532995,-13.16578,11.646284,12.598661,21.626371702390973
246730.68892766497,-1.6319634,-2.266084,18.77715,18.983672019830504
246733.0,11.47878,-11.677391,-1.1820966,16.417100938564417
246734.82249365482,-11.785072,10.693906,10.442651,19.034088039352476
246737.13356598985,-4.8312817,0.77290934,19.21266,19.825866336385253
246739.44463832487,10.708263,-10.313434,0.6580497,14.881762219481775
246741.7557106599,-10.488116,10.114822,9.485488,17.38633612694992
246744.06678299492,-5.7453723,0.33740005,18.03774,18.933652737043303
246746.37785532995,10.902089,-13.022206,0.33979294,16.986725785519436
246748.68892766497,-10.088501,8.932726,9.822887,16.67514783241354
246751.0,-6.6283555,1.2634555,20.4809,21.563828074923535
246753.82249365482,12.732664,-15.209324,1.1007377,19.86594806592611
246756.13356598985,-8.741293,8.324927,7.5137315,14.218676939900922
246758.44463832487,-9.643419,6.1928463,20.031034,23.077894150336608
246760.7557106599,12.074615,-12.206224,1.8090385,17.264438943414387
246763.06678299492,-7.142831,7.6118407,6.618784,12.359953688238216
246765.37785532995,-10.710656,5.2715764,19.174372,22.5868149876373
246767.68892766497,10.5862255,-13.44575,2.7231295,17.32835242234877
246770.0,-7.049507,7.379729,7.0231853,12.388748153652413
246772.82249365482,-10.4354725,5.666406,19.935318,23.20396834630267
246775.13356598985,11.998041,-16.33399,2.9935281,20.486908689289134
246777.44463832487,-6.2311325,5.747765,5.960734,10.36311558106621
246779.7557106599,-12.907347,9.186374,20.624475,26.00688452836883
246782.06678299492,11.763536,-13.962619,4.2067323,18.735850800172386
246784.37785532995,-4.000942,4.8001738,4.493881,7.697023570168629
246786.68892766497,-13.850152,9.571632,18.985332,25.37490257551252
246789.0,9.708028,-12.825988,5.130395,16.884096916357503
246790.82249365482,-3.436216,4.4388447,4.618313,7.269094691592832
246793.13356598985,-13.419429,9.014085,19.128908,25.04495806236716
246795.44463832487,9.906639,-15.295468,5.0203214,18.90228728420566
246797.7557106599,-2.9839563,2.41923,3.9817991,5.53275637146355
246800.06678299492,-14.749886,10.732193,19.638597,26.803238530645025
246802.37785532995,10.14593,-14.620668,6.5278535,18.95565086322773
246804.68892766497,-0.57908374,0.8183746,3.0342073,3.195542035904212
246807.0,-15.809944,12.5173025,18.62879,27.45303276550229
246809.82249365482,7.7458434,-10.751336,7.6070547,15.27928653344166
246812.13356598985,0.55036885,0.8997334,2.7542372,2.949279338412983
246814.44463832487,-15.135143,11.409386,17.618982,25.878082796910768
246816.7557106599,6.843717,-12.579518,7.5137315,16.172102415657193
246819.06678299492,0.42115182,-0.72983694,3.1107805,3.222884753393786
246821.37785532995,-15.465365,12.139223,18.87526,27.254608595511954
246823.68892766497,7.3318706,-13.0581,8.356035,17.149158085059724
246826.0,2.8068812,-2.9911351,1.3208853,4.309316562184953
246827.82249365482,-16.329205,13.969797,18.147816,28.127235728437483
246830.13356598985,5.0945015,-9.105016,10.995413,15.157650508384446
246832.44463832487,3.9650488,-2.811667,1.4931747,5.084943853179751
246834.7557106599,-16.190416,14.244982,16.0947,26.908891662857094
246837.06678299492,2.8595252,-7.922919,9.28209,12.534222138533211
246839.37785532995,3.7927594,-3.6946502,1.5577831,5.519252861873064
246841.68892766497,-15.290683,12.373728,17.50173,26.32916034015086
246844.0,3.615684,-11.507495,11.402207,16.598371499449275
246846.82249365482,5.2021823,-6.929862,1.4716384,8.789277990929167
246849.13356598985,-15.8769455,15.010713,16.417742,27.330224213440022
246851.44463832487,1.8281817,-5.723836,12.112901,13.521350432516417
246853.7557106599,7.054293,-6.843717,0.24646953,9.831594953778172
246856.06678299492,-15.56826,14.211481,14.943711,25.838951412402206
246858.37785532995,-1.0696299,-4.1253734,12.775736,13.467822546874368
246860.68892766497,6.4225655,-6.561354,1.3926725,9.286562906014394
246863.0,-14.297626,13.153816,14.331126,24.14179274672053
246864.82249365482,-0.9404129,-6.2095966,12.4168005,13.914754795324933
246867.13356598985,6.8915753,-9.356271,1.1820966,11.680366839818973
246869.44463832487,-14.673312,14.065514,15.163858,25.35916715071108
246871.7557106599,-1.4812101,-3.646792,14.154052,14.691162761003978
246874.06678299492,9.4137,-10.727407,0.21775463,14.273837105436487
246876.37785532995,-13.921939,13.519931,13.304569,23.529140996650156
246878.68892766497,-4.2833056,-0.4139731,15.400757,15.990665926207202
246881.0,9.085872,-9.43045,1.720501,13.207822715871266
246882.82249365482,-12.6584835,13.259104,11.995648,21.90745567934561
246885.13356598985,-5.2476473,-0.42115182,13.541467,14.52881617864221
246887.44463832487,7.942062,-10.691513,1.3711363,13.388981058848008
246889.7557106599,-12.756593,12.428764,13.03417,22.07021583773582
246892.06678299492,-4.8528175,-1.6726427,15.518009,16.34491280534254
246894.37785532995,9.978427,-14.034406,1.1653463,17.259536180502902
246896.68892766497,-12.299547,11.871217,11.761144,20.749196554446005
