timestamp,accel_x,accel_y,accel_z,magnitude
1191784.9075584556,5.209361,-4.5345607,33.134598,33.846732004610274
1191786.0636215333,4.869568,-5.001178,33.1681,33.89465048505897
1191787.2196846113,4.42688,-5.417544,33.25903,33.986911099234014
1191788.375747689,4.0296574,-5.831517,33.40739,34.1511117812402
1191789.5318107668,3.6276486,-6.2287397,33.606003,34.370342888185554
1191790.6878738445,3.1921394,-6.532639,33.706505,34.481786577385726
1191791.8439369223,2.782952,-6.877218,33.93383,34.735367677955104
1191793.0,2.2756555,-7.133259,34.204227,35.01415623120584
1191793.9075584556,1.7540016,-7.3845143,34.3813,35.20910908770211
1191795.0636215333,1.2706342,-7.6142335,34.5847,35.435752244770136
1191796.2196846113,0.83033913,-7.9300976,34.785706,35.68783060000664
1191797.375747689,0.28954187,-8.044957,35.024994,35.93821604262471
1191798.5318107668,-0.17707519,-8.2028885,35.295395,36.236496016755964
1191799.6878738445,-0.5814767,-8.322535,35.565792,36.53119577246455
1191800.8439369223,-0.97152066,-8.530717,35.886444,36.89923912348372
1191802.0,-1.2658484,-8.569004,36.1042,37.1287416883982
1191803.9075584556,-1.5051392,-8.671899,36.379383,37.42895648743452
1191805.0636215333,-1.823396,-8.63122,36.58517,37.633726836311546
1191806.2196846113,-2.1057591,-8.588147,36.8795,37.924767771613865
1191807.375747689,-2.4048727,-8.583362,37.171432,38.22529101075456
1191808.5318107668,-2.6920216,-8.6455765,37.456192,38.53516955267075
1191809.6878738445,-2.8308103,-8.557039,37.573444,38.63935943339697
1191810.8439369223,-2.8427749,-8.569004,37.67155,38.738286979248144
1191812.0,-2.8738825,-8.61447,37.970665,39.041512452092974
1191812.9075584556,-2.864311,-8.652756,38.27696,39.34717436794995
1191814.0636215333,-2.6489491,-8.60729,38.523426,39.56206166589359
1191815.2196846113,-2.4790528,-8.63122,38.8369,39.8616164133316
1191816.375747689,-2.2086542,-8.698221,39.064224,40.08180134003704
1191817.5318107668,-1.9669704,-8.743686,39.35855,40.36603120847493
1191818.6878738445,-1.6774286,-8.791544,39.52845,40.52904356155637
1191819.8439369223,-1.536247,-8.810688,39.6122,40.609292861589616
1191821.0,-1.3065279,-8.935119,39.638523,40.65410031373426
1191822.9075584556,-1.1031306,-9.078693,39.650486,40.69152987717593
1191824.0636215333,-0.89494765,-9.219875,39.698345,40.76475956081295
1191825.2196846113,-0.7059079,-9.365842,39.786884,40.880477501635205
1191826.375747689,-0.45225963,-9.509417,39.873028,40.99380334076847
1191827.5318107668,-0.21775463,-9.648206,39.880207,41.03128326606629
1191828.6878738445,0.0,-9.897068,39.84192,41.05277754650742
1191829.8439369223,0.27279153,-10.081322,39.846706,41.10313184584551
1191831.0,0.60540575,-10.330184,39.951992,41.270339014406616
1191831.9075584556,1.0648441,-10.54076,39.93524,41.31664202464311
1191833.0636215333,1.380708,-10.748943,39.87542,41.321849551719154
1191834.2196846113,1.7851094,-11.00977,39.710308,41.24694185606652
1191835.375747689,2.2589052,-11.1796665,39.526054,41.13874743553485
1191836.5318107668,2.6728783,-11.418958,39.435127,41.14202379220672
1191837.6878738445,3.1610315,-11.660641,39.353767,41.166511216827224
1191838.8439369223,3.5773976,-11.856859,39.31548,41.220017546876015
1191840.0,3.933941,-12.0243635,39.212585,41.203009984148466
1191840.9075584556,4.2809124,-12.21101,39.167118,41.24921949107035
1191842.0636215333,4.5967765,-12.35937,39.01876,41.186745597648915
1191843.2196846113,4.905462,-12.4574795,38.87279,41.11381951741366
1191844.375747689,5.178253,-12.610625,38.73879,41.06745691769499
1191845.5318107668,5.467795,-12.670448,38.602394,40.994900380583495
1191846.6878738445,5.8171597,-12.694378,38.489925,40.94460778036362
1191847.8439369223,6.1306305,-12.684806,38.31285,40.82111474111977
1191849.0,6.4106007,-12.598661,38.080738,40.61975710110051
1191849.9075584556,6.6809993,-12.452694,37.918022,40.465809418529126
1191851.0636215333,6.97772,-12.285191,37.76248,40.318970597663835
1191852.2196846113,7.2026534,-12.077007,37.556694,40.1028375341224
1191853.375747689,7.418015,-11.818573,37.334152,39.856549271802976
1191854.5318107668,7.5663753,-11.497924,37.157078,39.624496678043876
1191855.6878738445,7.7147355,-11.131808,36.920177,39.32599347626393
1191856.8439369223,7.805666,-10.813552,36.750282,39.09532651916062
1191858.0,7.918133,-10.464187,36.506207,38.79303016398058
1191859.9075584556,7.9444547,-10.057393,36.336308,38.530413876672355
1191861.0636215333,7.9755626,-9.6410265,36.068302,38.1769747350864
1191862.2196846113,8.028207,-9.260554,35.793118,37.83328249284866
1191863.375747689,8.049743,-8.844189,35.53947,37.49762618239547
1191864.5318107668,8.123923,-8.420644,35.230785,37.122952226363815
1191865.6878738445,8.140674,-8.071279,34.869457,36.7055193308168
1191866.8439369223,8.181353,-7.681235,34.577522,36.35300449338841
1191868.0,8.198103,-7.3294773,34.32866,36.04701135580347
1191868.9075584556,8.229211,-6.925076,33.99126,35.6522418323995
1191870.0636215333,8.205282,-6.6283555,33.74718,35.357232743617026
1191871.2196846113,8.183745,-6.3124914,33.41696,34.97877135551933
1191872.375747689,8.159817,-5.96552,33.10349,34.61229683976475
1191873.5318107668,8.150245,-5.6113696,32.801983,34.26199134726582
1191874.6878738445,8.145459,-5.2452545,32.529194,33.94126779276353
1191875.8439369223,8.164602,-4.891104,32.187008,33.56467053539009
1191877.0,8.241176,-4.55849,31.890285,33.2518734859301
1191877.9075584556,8.284247,-4.1469097,31.595959,32.92613298804832
1191879.0636215333,8.305784,-3.776009,31.289667,32.59275307171252
1191880.2196846113,8.389536,-3.412287,30.966623,32.26390796059575
1191881.375747689,8.4541445,-3.017457,30.645973,31.93357585818504
1191882.5318107668,8.5642185,-2.6106627,30.310966,31.605633328602508
1191883.6878738445,8.636005,-2.2469406,29.96878,31.269107744039534
1191884.8439369223,8.765223,-1.8640754,29.676846,31.000308060474662
1191886.0,8.860939,-1.4812101,29.339447,30.68408990972149
1191886.9075584556,8.973405,-1.1605604,29.045118,30.421830605175572
1191888.0636215333,9.109801,-0.8231604,28.70054,30.122866125176888
1191889.2196846113,9.219875,-0.5168682,28.403818,29.867208184377066
1191890.375747689,9.315591,-0.2057901,28.07599,29.58181535546186
1191891.5318107668,9.373021,0.107680865,27.822342,29.358948077206243
1191892.6878738445,9.404129,0.41875893,27.542372,29.106618777805153
1191893.8439369223,9.406522,0.70830077,27.303082,28.886720700280094
1191895.0,9.387379,0.9547703,26.98004,28.58246016732995
1191896.9075584556,9.435237,1.2323477,26.673746,28.320153667880767
1191898.0636215333,9.4495945,1.4907818,26.34831,28.031245181863426
1191899.2196846113,9.485488,1.7300725,26.070734,27.796596999491797
1191900.375747689,9.516596,1.9980782,25.850586,27.619028086881105
1191901.5318107668,9.5405245,2.266084,25.54908,27.366260856692794
1191902.6878738445,9.612311,2.5316968,25.312181,27.193979451794327
1191903.8439369223,9.672134,2.8068812,25.06332,27.01108601310339
1191905.0,9.751101,3.0557437,24.847958,26.867127815269995
1191905.9075584556,9.839638,3.2998202,24.608667,26.707560368559708
1191907.0636215333,9.968855,3.5367181,24.43877,26.62968126063083
1191908.2196846113,10.119608,3.776009,24.19948,26.500557396253857
1191909.375747689,10.227289,3.95787,24.079834,26.459413838820716
1191910.5318107668,10.397185,4.16366,23.909937,26.403079514779975
1191911.6878738445,10.500081,4.4101295,23.670647,26.26786006914039
1191912.8439369223,10.591011,4.682921,23.472036,26.173187369513442
1191914.0,10.753729,4.922212,23.35957,26.182825839914322
1191914.9075584556,10.933197,5.23329,23.158564,26.1388830558424
1191916.0636215333,11.08395,5.503689,23.050884,26.162717622461873
1191917.2196846113,11.217953,5.7310147,22.97431,26.201257965561982
1191918.375747689,11.373492,5.9679127,22.818771,26.18527472109709
1191919.5318107668,11.481173,6.250276,22.598623,26.10710717464181
1191920.6878738445,11.543388,6.5230675,22.476585,26.095920933937652
1191921.8439369223,11.62714,6.7551794,22.321047,26.058625682909554
1191923.0,11.691749,6.99447,22.234901,26.07700956282568
1191923.9075584556,11.773108,7.2146177,22.203794,26.14699310688044
1191925.0636215333,11.81618,7.4323726,22.155935,26.186785369377734
1191926.2196846113,11.832931,7.623805,22.057827,26.16655098958812
1191927.375747689,11.902325,7.85831,21.93818,26.16681329803316
1191928.5318107668,11.866431,8.035385,21.852037,26.132185477402288
1191929.6878738445,11.916682,8.17896,21.801786,26.15761016149067
1191930.8439369223,12.026756,8.336892,21.718035,26.188159010599144
1191932.0,12.067435,8.485252,21.686926,26.22871038217863
1191932.9075584556,12.117686,8.643184,21.586424,26.220538605456372
1191934.0636215333,12.282797,8.791544,21.543352,26.31110722571456
1191935.2196846113,12.392871,8.954262,21.581638,26.448613543063633
1191936.375747689,12.536446,9.095444,21.615139,26.59142368993005
1191937.5318107668,12.691984,9.253376,21.66539,26.760055102815688
1191938.6878738445,12.79488,9.363449,21.701284,26.876176414041062
1191939.8439369223,12.873845,9.516596,21.835287,27.075473086976892
1191941.0,12.866667,9.722385,21.890324,27.189376134845205
1191942.9075584556,12.883417,9.930569,22.009968,27.368546282560825
1191944.0636215333,12.895382,10.153109,22.112864,27.538250735555096
1191945.2196846113,12.921703,10.356506,22.251652,27.737405099925066
1191946.375747689,12.948026,10.681942,22.313868,27.922463489267273
1191947.5318107668,13.0581,10.988234,22.493336,28.234826481805264
1191948.6878738445,13.153816,11.263418,22.653662,28.51448513325857
1191949.8439369223,13.247139,11.567318,22.895344,28.870163045552427
1191951.0,13.333283,11.809001,23.050884,29.130262500663225
1191951.9075584556,13.462501,12.122473,23.263853,29.48559209540041
1191953.0636215333,13.598897,12.349798,23.436142,29.77751269165336
1191954.2196846113,13.69222,12.603447,23.59168,30.048146865199673
1191955.375747689,13.747257,12.88581,23.773542,30.33500409767424
1191956.5318107668,13.831009,13.175352,23.96976,30.650221936220706
1191957.6878738445,13.921939,13.385928,24.194695,30.95782163014591
1191958.8439369223,13.9961195,13.661112,24.374163,31.250874613127124
1191960.0,14.132515,13.929118,24.584738,31.593633077121616
1191960.9075584556,14.259339,14.151658,24.843172,31.949669292302055
1191962.0636215333,14.376592,14.429235,25.06332,32.29642750587268
1191963.2196846113,14.48188,14.709206,25.30979,32.659930485672135
1191964.375747689,14.591953,14.974819,25.539509,33.00661776671537
1191965.5318107668,14.723563,15.245217,25.831444,33.41352193225362
1191966.6878738445,14.769029,15.541938,26.135342,33.80432155591426
1191967.8439369223,14.812101,15.819515,26.448812,34.19349422157335
1191969.0,14.871923,16.11863,26.793392,34.624704788062715
1191969.9075584556,14.917389,16.444065,27.10447,35.03695281103147
1191971.0636215333,14.9915695,16.745571,27.343761,35.39551623884715
1191972.2196846113,15.00832,17.16433,27.628517,35.821764964761144
1191973.375747689,15.106429,17.496944,27.941988,36.264334267477196
1191974.5318107668,15.17343,17.886988,28.219564,36.6949739068873
1191975.6878738445,15.317005,18.257889,28.39664,37.07196132113792
1191976.8439369223,15.503652,18.66229,28.628752,37.526653653885894
1191978.0,15.644834,19.061907,28.875221,37.97229933995367
1191979.9075584556,15.843445,19.396914,29.08819,38.384603940480105
1191981.0636215333,16.006163,19.7726,29.284409,38.790843961195925
1191982.2196846113,16.295704,20.198538,29.451912,39.25488538575554
1191983.375747689,16.587639,20.550295,29.590702,39.66199739087972
1191984.5318107668,16.855644,20.969053,29.791706,40.141744665148536
1191985.6878738445,17.135614,21.332775,29.90178,40.53187638792486
1191986.8439369223,17.417978,21.691711,29.973566,40.89414313165592
1191988.0,17.59266,22.007576,30.045355,41.18930011965973
1191988.9075584556,17.858273,22.337797,30.153034,41.55839925647876
1191990.0636215333,18.114315,22.648874,30.275074,41.9246944782258
1191991.2196846113,18.360785,22.919273,30.344467,42.22793125620581
1191992.375747689,18.549824,23.163351,30.423433,42.4996714750322
1191993.5318107668,18.750828,23.424177,30.418648,42.72680382337084
1191994.6878738445,18.877651,23.668255,30.433004,42.92691154144265
1191995.8439369223,19.028404,23.905151,30.423433,43.117533308684365
1191997.0,19.169586,24.077442,30.363611,43.23361092522901
1191997.9075584556,19.313162,24.240158,30.303787,43.34631463970815
1191999.0636215333,19.514166,24.40527,30.282251,43.51361400843944
1192000.2196846113,19.746277,24.546452,30.203285,43.64266474380612
1192001.375747689,19.992746,24.699596,30.148249,43.80293201316246
1192002.5318107668,20.229645,24.879065,30.023817,43.927622281996314
1192003.6878738445,20.454578,25.020247,29.923315,44.043243541868236
1192004.8439369223,20.741728,25.190144,29.839563,44.21721559752139
1192006.0,21.03127,25.372004,29.698381,44.36267280958257
1192006.9075584556,21.246632,25.534721,29.626595,44.51040866118048
1192008.0636215333,21.469172,25.745298,29.487806,44.646124335355516
1192009.2196846113,21.639069,25.965446,29.320303,44.7452104831063
1192010.375747689,21.842464,26.144915,29.191086,44.86389768854147
1192011.5318107668,21.976467,26.374634,29.064262,44.98130440572716
1192012.6878738445,22.230116,26.558887,28.90633,45.112397964651855
1192013.8439369223,22.445478,26.719212,28.767542,45.224852075724826
1192015.0,22.732626,26.93936,28.530643,45.34863826024906
1192016.9075584556,23.101135,27.085327,28.34639,45.50599084754944
1192018.0636215333,23.472036,27.281546,28.154957,45.69377233067172
1192019.2196846113,23.696968,27.396404,27.98506,45.77415021306064
1192020.375747689,23.91951,27.511265,27.855843,45.87985014994027
1192021.5318107668,24.154015,27.712269,27.77927,46.076828617880004
1192022.6878738445,24.340662,27.886951,27.5328,46.13247162806958
1192023.8439369223,24.469877,28.114277,27.319832,46.21212689474574
1192025.0,24.67806,28.24828,27.135578,46.295913013095266
1192025.9075584556,24.92453,28.420568,26.929789,46.41308454248699
1192027.0636215333,25.118357,28.573715,26.84125,46.560087508972465
1192028.2196846113,25.192537,28.757969,26.64264,46.59951681799855
1192029.375747689,25.288252,28.90633,26.374634,46.59069565823588
1192030.5318107668,25.352861,29.016403,26.1162,46.54863162740372
1192031.6878738445,25.429434,29.092978,25.905622,46.52051949060462
1192032.8439369223,25.482079,29.140835,25.685476,46.457166207228376
1192034.0,25.498829,29.279623,25.5419,46.47445813566168
1192034.9075584556,25.422256,29.4567,25.338503,46.43304867549131
1192036.0636215333,25.455757,29.595488,25.010675,46.36186297331911
1192037.2196846113,25.5084,29.68881,24.902994,46.39248883106118
1192038.375747689,25.537115,29.841957,24.723526,46.410552442152095
1192039.5318107668,25.43422,29.99271,24.47945,46.32176240661618
1192040.6878738445,25.336111,30.184143,24.268873,46.281521214615445
1192041.8439369223,25.259539,30.370789,24.075048,46.260534704836104
1192043.0,25.132713,30.47847,23.866865,46.15428085464548
1192043.9075584556,25.068106,30.636402,23.699362,46.137390749151436
1192045.0636215333,24.950853,30.729725,23.57493,46.072099892539455
1192046.2196846113,24.819242,30.892443,23.340425,45.99036037196749
1192047.375747689,24.883852,31.19395,22.99824,46.056352982601695
1192048.5318107668,24.967604,31.330345,22.821165,46.10615294379988
1192049.6878738445,24.93171,31.464348,22.670412,46.1036109088968
1192050.8439369223,24.93171,31.543314,22.49573,46.071994637302126
1192052.0,24.90778,31.612709,22.22533,45.97527779639815
1192053.9075584556,24.838387,31.694067,21.988432,45.879739467229776
1192055.0636215333,24.785742,31.698854,21.758713,45.74485700950708
1192056.2196846113,24.670883,31.665352,21.552923,45.56177647027739
1192057.375747689,24.582344,31.70364,21.397385,45.467136600210054
1192058.5318107668,24.383734,31.717997,21.184416,45.27004858331633
1192059.6878738445,24.259302,31.725176,20.981018,45.113231341531105
1192060.8439369223,24.132479,31.689281,20.796764,44.93431278938288
1192062.0,23.988903,31.641424,20.648403,44.75492963173548
1192062.9075584556,23.84533,31.641424,20.466543,44.594381461429926
1192064.0636215333,23.668255,31.5816,20.318182,44.389326116648235
1192065.2196846113,23.58211,31.579208,20.098036,44.24130808437585
1192066.375747689,23.419392,31.454777,19.975996,44.010354849301194
1192067.5318107668,23.259068,31.459562,19.839602,43.866822234792345
1192068.6878738445,23.1466,31.392561,19.629025,43.66413402495629
1192069.8439369223,23.060455,31.332739,19.506987,43.52065785195939
1192071.0,22.99824,31.33513,19.282053,43.38901915357513
1192072.9075584556,22.926453,31.265738,19.133694,43.235018976883644
1192074.0636215333,22.84988,31.217878,19.028404,43.11325876832439
1192075.2196846113,22.708698,31.155663,18.829794,42.90596047062935
1192076.375747689,22.689554,31.07909,18.729292,42.79616892629853
1192077.5318107668,22.560337,30.985767,18.559395,42.58565139689521
1192078.6878738445,22.48855,30.902016,18.351212,42.39618444902442
1192079.8439369223,22.45505,30.84698,18.23396,42.28761926266954
1192081.0,22.349762,30.710583,18.080814,42.066228789364146
1192081.9075584556,22.196615,30.61008,17.93006,41.84678920381138
1192083.0636215333,22.112864,30.466505,17.882202,41.67685004371521
1192084.2196846113,22.012362,30.380362,17.762556,41.50926248108034
1192085.375747689,21.87118,30.27986,17.590267,41.28723688191411
1192086.5318107668,21.737177,30.148249,17.551981,41.10345263745725
1192087.6878738445,21.560102,30.057318,17.489765,40.91664995278515
1192088.8439369223,21.397385,29.954424,17.46823,40.74622266349239
1192090.0,21.225094,29.8946,17.422764,40.59241837915711
1192090.9075584556,21.04802,29.810848,17.336618,40.401288693275966
1192092.0636215333,20.918802,29.758205,17.27919,40.270553124998536
1192093.2196846113,20.8183,29.73667,17.250475,40.19017349184406
1192094.375747689,20.701048,29.686419,17.193045,40.06766349207163
1192095.5318107668,20.626867,29.669668,17.12365,39.987200837123034
1192096.6878738445,20.63644,29.652918,17.011183,39.931673504222346
1192097.8439369223,20.57901,29.63856,16.94179,39.86181305281786
1192099.0,20.557474,29.64813,16.824537,39.8081197122138
1192099.9075584556,20.564651,29.621809,16.71207,39.74480749568655
1192101.0636215333,20.569437,29.609844,16.578068,39.68219926886524
1192102.2196846113,20.57183,29.619417,16.434492,39.630828659855865
1192103.375747689,20.598152,29.600273,16.290918,39.57087359122057
1192104.5318107668,20.588581,29.518915,16.211952,39.47256513100067
1192105.6878738445,20.622082,29.502163,16.05402,39.412935006843796
1192106.8439369223,20.634047,29.454306,15.943947,39.338651266644284
1192108.0,20.58619,29.291588,15.771657,39.122033571933514
1192108.9075584556,20.543116,29.215015,15.654405,38.994834431546266
1192110.0636215333,20.454578,29.078619,15.515616,38.790336218763315
1192111.2196846113,20.416292,28.990082,15.364862,38.643612896247575
1192112.375747689,20.313396,28.844114,15.238039,38.42934818681333
1192113.5318107668,20.198538,28.695753,15.125572,38.21269561155869
1192114.6878738445,20.086071,28.556965,14.962854,37.98470084196507
1192115.8439369223,20.00232,28.403818,14.766636,37.748155201493226
1192117.0,19.925745,28.238708,14.601525,37.51885493508449
1192117.9075584556,19.844387,28.052061,14.477094,37.28678147062744
1192119.0636215333,19.786957,27.937202,14.33352,37.114157925231886
1192120.2196846113,19.717564,27.781664,14.151658,36.89000689688138
1192121.375747689,19.712776,27.611767,14.02962,36.71285131711871
1192122.5318107668,19.629025,27.413155,13.876474,36.46006335948041
1192123.6878738445,19.609882,27.264795,13.742471,36.28735354957413
1192124.8439369223,19.585953,27.109255,13.589325,36.099737056228804
1192126.0,19.528522,26.970467,13.397892,35.89251693245037
1192126.9075584556,19.521345,26.858,13.259104,35.75246723642777
1192128.0636215333,19.50938,26.702461,13.115529,35.57603733400844
1192129.2196846113,19.41127,26.570852,12.981526,35.37410912387024
1192130.375747689,19.413664,26.482313,12.8594885,35.26428357724707
1192131.5318107668,19.339483,26.381811,12.696771,35.08879519409937
1192132.6878738445,19.32034,26.310024,12.54841,34.97078057642231
1192133.8439369223,19.279661,26.262167,12.335442,34.83632978868718
1192135.0,19.238981,26.223879,12.230153,34.74776053400292
1192136.9075584556,19.183945,26.204737,12.045899,34.63835547078405
1192138.0636215333,19.150444,26.171236,11.87361,34.534847814880145
1192139.2196846113,19.116943,26.118591,11.691749,34.414172954896515
1192140.375747689,19.006868,26.044413,11.540996,34.24568685770529
1192141.5318107668,18.961403,25.922373,11.378278,34.07300156905496
1192142.6878738445,18.808258,25.78837,11.237097,33.83877871967121
1192143.8439369223,18.683826,25.651976,11.0672,33.60940556663941
1192145.0,18.525894,25.455757,10.909268,33.31991058268478
1192145.9075584556,18.344034,25.307396,10.727407,33.046106225055034
1192147.0636215333,18.205244,25.163822,10.567082,32.80719538061649
1192148.2196846113,18.095171,25.08007,10.416329,32.63349559211182
1192149.375747689,17.94681,24.936495,10.236861,32.38379371220188
1192150.5318107668,17.767344,24.840778,10.064571,32.156466750463444
1192151.6878738445,17.599838,24.780956,9.935354,31.97751298968536
1192152.8439369223,17.439514,24.721134,9.729565,31.77948315960121
1192154.0,17.25526,24.666096,9.552489,31.581803869379232
1192155.9075584556,17.102114,24.670883,9.377807,31.449611053205953
1192157.0636215333,16.91068,24.680454,9.107409,31.273643957840875
1192158.2196846113,16.745571,24.77617,8.908797,31.20319554103634
1192159.375747689,16.523031,24.795313,8.724543,31.047314710837377
1192160.5318107668,16.295704,24.914959,8.406286,30.934944563407463
1192161.6878738445,16.075556,25.101606,8.181353,30.91033259929406
1192162.8439369223,15.817122,25.233215,7.884632,30.806880877078957
1192164.0,15.577831,25.393541,7.5161242,30.72446689811017
1192164.9075584556,15.30504,25.592152,7.2194037,30.68097591629506
1192166.0636215333,15.034641,25.83623,6.7862873,30.652975482486564
1192167.2196846113,14.658955,26.01091,6.4799953,30.552295164326804
1192168.375747689,14.295233,26.113806,6.0875583,30.38655815300285
1192169.5318107668,13.886045,26.276524,5.659228,30.254005037690213
1192170.6878738445,13.519931,26.417706,5.266791,30.14005328437357
1192171.8439369223,13.144244,26.570852,4.848032,30.03805487395054
1192173.0,12.682413,26.654604,4.36945,29.839631485691722
1192173.9075584556,12.139223,26.72639,3.8477962,29.605171728476147
1192175.0636215333,11.663034,26.735962,3.3787863,29.3641656277114
1192176.2196846113,11.289741,26.704855,2.8714898,29.135081707275337
1192177.375747689,10.835088,26.702461,2.4335876,28.91959377361893
1192178.5318107668,10.452223,26.587603,1.9478272,28.634657841999754
1192179.6878738445,10.064571,26.460777,1.4788172,28.348813188011697
1192180.8439369223,9.751101,26.290882,1.0169859,28.05937824277159
1192182.0,9.4137,26.104235,0.5288327,27.754792318621558
1192182.9075584556,9.083479,25.960659,0.057429794,27.50397616052924
1192184.0636215333,8.712579,25.702227,-0.4091873,27.141866918788974
1192185.2196846113,8.432608,25.46772,-0.64369226,26.835200379457724
1192186.375747689,8.126316,25.257145,-0.9475916,26.549167880053634
1192187.5318107668,7.757808,25.010675,-1.2658484,26.21678510214919
1192188.6878738445,7.398872,24.752241,-1.586498,25.883077817339828
1192189.8439369223,7.0519004,24.544058,-1.9885067,25.614336635072732
1192191.0,6.7312503,24.319124,-2.4120514,25.34852095655421
1192192.9075584556,6.331635,24.072655,-2.8308103,25.05186235545845
1192194.0636215333,6.0277357,23.83815,-3.2112827,24.79724439672428
1192195.2196846113,5.7118716,23.60604,-3.5558615,24.546175927497725
1192196.375747689,5.379257,23.402641,-3.905226,24.328394968801497
1192197.5318107668,5.21654,23.170528,-4.218697,24.12225241863191
1192198.6878738445,4.974856,22.962345,-4.606348,23.942366675349053
1192199.8439369223,4.7953877,22.787664,-4.874354,23.791441753023783
1192201.0,4.5991693,22.627338,-5.3026843,23.691079418248826
1192201.9075584556,4.4962745,22.476585,-5.510867,23.57505064116012
1192203.0636215333,4.457988,22.306688,-5.75973,23.465644593967326
1192204.2196846113,4.42688,22.19183,-6.063629,23.427381030173667
1192205.375747689,4.3407354,22.143972,-6.4656377,23.473430738118758
1192206.5318107668,4.2115183,22.1344,-6.8389316,23.54653977086046
1192207.6878738445,3.986585,22.15115,-7.1739383,23.62269453337049
1192208.8439369223,3.776009,22.227724,-7.468266,23.75089377760367
1192210.0,3.438609,22.380869,-7.755415,23.934782031016432
1192210.9075584556,3.0007067,22.476585,-8.0114565,24.04962679987035
1192212.0636215333,2.7039862,22.648874,-8.317748,24.2789613993097
1192213.2196846113,2.2852273,22.74459,-8.633613,24.435177746735018
1192214.375747689,1.8975761,22.821165,-9.0428,24.62069452417044
1192215.5318107668,1.4883888,22.907309,-9.416093,24.811749519654906
1192216.6878738445,1.0265576,22.976704,-9.724778,24.97106434173397
1192217.8439369223,0.677193,23.058062,-10.028678,25.153671620317716
1192219.0,0.25604117,23.120277,-10.299076,25.311731116050517
1192219.9075584556,-0.18664683,23.199244,-10.669977,25.536017081589172
1192221.0636215333,-0.5886554,23.263853,-10.930804,25.710617411333672
1192222.2196846113,-0.98827106,23.31171,-11.177274,25.871682529035674
1192223.375747689,-1.3137065,23.36914,-11.51228,26.084001225006535
1192224.5318107668,-1.6463208,23.385891,-11.818573,26.25431274660837
1192225.6878738445,-1.902362,23.455286,-12.077007,26.45039736183351
1192226.8439369223,-2.1536174,23.50075,-12.385693,26.65199260014777
1192228.0,-2.3809435,23.515108,-12.68002,26.821858686568618
1192229.9075584556,-2.6226273,23.515108,-12.967169,26.981214762885127
1192231.0636215333,-2.88824,23.53425,-13.230389,27.152275161603328
1192232.2196846113,-3.072494,23.543823,-13.496001,27.31105753769645
1192233.375747689,-3.309392,23.59168,-13.675469,27.46885314318792
1192234.5318107668,-3.5917552,23.646717,-13.941083,27.684322738830097
1192235.6878738445,-3.8812969,23.665861,-14.16123,27.850994194286326
1192236.8439369223,-4.132552,23.694576,-14.431629,28.04964943535161
1192238.0,-4.350307,23.677826,-14.668527,28.19096130731008
1192238.9075584556,-4.5106316,23.58211,-14.924568,28.270204093172772
1192240.0636215333,-4.6757426,23.548609,-15.09925,28.361715485118943
1192241.2196846113,-4.7547083,23.52468,-15.27154,28.447104493991805
1192242.375747689,-4.814531,23.431356,-15.431865,28.466657867177208
1192243.5318107668,-4.898283,23.345211,-15.692691,28.552628667148863
1192244.6878738445,-4.948534,23.256674,-15.898481,28.60284203359507
1192245.8439369223,-4.941355,23.194458,-16.063593,28.643304474509186
1192247.0,-4.950927,23.101135,-16.188023,28.639591566502535
1192247.9075584556,-4.9341764,22.97431,-16.312454,28.605264764104753
1192249.0636215333,-4.9461412,22.830736,-16.458422,28.57597721517354
1192250.2196846113,-4.948534,22.713484,-16.561317,28.54238190729535
1192251.375747689,-4.9269977,22.593838,-16.61396,28.47420743036844
1192252.5318107668,-4.9030685,22.376083,-16.633104,28.308820530241054
1192253.6878738445,-4.850425,22.227724,-16.716856,28.232102497432546
1192254.8439369223,-4.78103,22.053041,-16.786251,28.12424377371918
1192256.0,-4.680528,21.878359,-16.874788,28.023711476829916
1192256.9075584556,-4.5991693,21.713247,-16.908289,27.901750669816266
1192258.0636215333,-4.4843097,21.60078,-16.896324,27.7882798101446
1192259.2196846113,-4.319199,21.461992,-16.94179,27.682066920910458
1192260.375747689,-4.187589,21.308847,-16.881968,27.50643026012925
1192261.5318107668,-4.03205,21.167665,-16.872395,27.367959035900906
1192262.6878738445,-3.876511,21.02409,-16.807787,27.194510506692158
1192263.8439369223,-3.6802926,20.87573,-16.736,27.008042369903723
1192265.0,-3.493646,20.724977,-16.633104,26.802805500519174
1192265.9075584556,-3.2687125,20.557474,-16.50628,26.565983853543468
1192267.0636215333,-3.1083877,20.476114,-16.444065,26.44504854143271
1192268.2196846113,-2.9360983,20.33254,-16.365099,26.264982797608376
1192269.375747689,-2.7422726,20.28229,-16.257418,26.137998903579724
1192270.5318107668,-2.5388756,20.203323,-16.116236,25.968311696417626
1192271.6878738445,-2.3282995,20.117178,-15.994198,25.805739650484504
1192272.8439369223,-2.1416528,20.01189,-15.893696,25.645116311459066
1192274.0,-1.8616825,20.016676,-15.7261915,25.52344567088179
1192275.9075584556,-1.6247846,20.004711,-15.573046,25.4037034486713
1192277.0636215333,-1.4118158,19.985569,-15.43665,25.292416953098623
1192278.2196846113,-1.2395264,19.925745,-15.204538,25.094814510068925
1192279.375747689,-1.0648441,19.892244,-15.015498,24.94595046296783
1192280.5318107668,-0.86862564,19.873102,-14.845602,24.821091683229273
1192281.6878738445,-0.6867646,19.839602,-14.656562,24.675823447132643
1192282.8439369223,-0.47140288,19.78935,-14.443593,24.50424397624667
1192284.0,-0.27039862,19.746277,-14.244982,24.349703960310293
1192284.9075584556,-0.1196454,19.72235,-14.110979,24.25087901257771
1192286.0636215333,0.12921704,19.662525,-13.905189,24.08289574666577
1192287.2196846113,0.28954187,19.64099,-13.756828,23.981297698334988
1192288.375747689,0.4450809,19.629025,-13.606075,23.88769550132023
1192289.5318107668,0.5934412,19.607489,-13.419429,23.767348864124905
1192290.6878738445,0.75376606,19.562023,-13.235175,23.63071654449695
1192291.8439369223,0.93802,19.499807,-13.079636,23.498919814539242
1192293.0,1.0696299,19.423235,-12.907347,23.345358694323117
1192293.9075584556,1.2179902,19.384949,-12.727879,23.221943323041206
1192295.0636215333,1.3831009,19.32034,-12.550803,23.080536427041505
1192296.2196846113,1.509925,19.217445,-12.380906,22.910192037922467
1192297.375747689,1.6534995,19.167194,-12.199045,22.780080889719446
1192298.5318107668,1.74443,19.104979,-12.048292,22.6540194829219
1192299.6878738445,1.8186102,19.021227,-11.887967,22.504181367873883
1192300.8439369223,1.9047549,18.992512,-11.732429,22.405211303160232
1192302.0,1.952613,18.894402,-11.564925,22.23867385257039
1192302.9075584556,2.0028641,18.872866,-11.433315,22.156651993165614
1192304.0636215333,2.0411506,18.815435,-11.296919,22.041036021559112
1192305.2196846113,2.0507221,18.762793,-11.146166,21.91996530088114
1192306.375747689,2.08183,18.695791,-11.007378,21.795159730992225
1192307.5318107668,2.0961876,18.650326,-10.830302,21.668504880860464
1192308.6878738445,2.1464386,18.57136,-10.710656,21.545782948491475
1192309.8439369223,2.1942968,18.518715,-10.490509,21.39646051983356
1192311.0,2.2230117,18.487608,-10.401972,21.329192485154824
1192312.9075584556,2.2589052,18.432571,-10.289505,21.230549675353508
1192314.0636215333,2.342657,18.36557,-10.12918,21.104087061916445
1192315.2196846113,2.340264,18.288996,-9.954497,20.9536684330148
1192316.375747689,2.3450499,18.219603,-9.830067,20.83466845753942
1192317.5318107668,2.390515,18.121492,-9.612311,20.651865703417936
1192318.6878738445,2.4407663,18.087992,-9.492666,20.5728826981256
1192319.8439369223,2.4311945,18.032955,-9.337128,20.451898005252207
1192321.0,2.4575167,17.982704,-9.19116,20.344396123453624
1192321.9075584556,2.5221252,17.927668,-9.054764,20.242310800360592
1192323.0636215333,2.5819478,17.898952,-8.935119,20.171149909818972
1192324.2196846113,2.5963054,17.848701,-8.777187,20.058812047338176
1192325.375747689,2.629806,17.831951,-8.643184,19.98997212909245
1192326.5318107668,2.6728783,17.77452,-8.444572,19.859220425288473
1192327.6878738445,2.7039862,17.779306,-8.34407,19.825205355211995
1192328.8439369223,2.7518444,17.726664,-8.210068,19.728468788411618
1192330.0,2.7422726,17.709913,-8.018635,19.633124681097115
1192330.9075584556,2.7542372,17.678804,-7.84156,19.53499415556298
1192332.0636215333,2.759023,17.65009,-7.70995,19.457163563200286
1192333.2196846113,2.7542372,17.611803,-7.5568037,19.36147488248265
1192334.375747689,2.785345,17.614197,-7.4132295,19.31253619656166
1192335.5318107668,2.785345,17.595053,-7.2529044,19.234049471636837
1192336.6878738445,2.8092742,17.604626,-7.10933,19.192640547344226
1192337.8439369223,2.8523464,17.595053,-6.92029,19.120988043051067
1192339.0,2.9265265,17.604626,-6.7910733,19.094661309409265
1192339.9075584556,2.9935281,17.595053,-6.64032,19.04313394010289
1192341.0636215333,3.050958,17.626162,-6.4656377,19.02089383903052
1192342.2196846113,3.0940301,17.616589,-6.2622404,18.950801700245275
1192343.375747689,3.1706033,17.638126,-6.121059,18.937359302693917
1192344.5318107668,3.172996,17.580696,-5.939198,18.82612143654757
1192345.6878738445,3.206497,17.65009,-5.77648,18.846087689743698
1192346.8439369223,3.122745,17.709913,-5.6137624,18.83897245303596
1192348.0,3.2136755,17.736235,-5.4630094,18.83470769348475
1192349.9075584556,3.1418884,17.74102,-5.309863,18.783234504132228
1192351.0636215333,3.1442811,17.75777,-5.149538,18.75480313472155
1192352.2196846113,3.1682103,17.812807,-4.9868207,18.76704639569646
1192353.375747689,3.206497,17.882202,-4.7953877,18.789638489686922
1192354.5318107668,3.1897464,17.927668,-4.5919905,18.779300806117018
1192355.6878738445,3.2328188,17.973133,-4.419701,18.788783466704903
1192356.8439369223,3.278284,17.980312,-4.2593765,18.76648751819989
1192358.0,3.3213565,18.016205,-4.1014442,18.773302749591796
1192358.9075584556,3.3692145,18.030563,-3.9219763,18.75725743656948
1192360.0636215333,3.460145,18.076027,-3.776009,18.787591636338995
1192361.2196846113,3.5175748,18.095171,-3.565433,18.77553883302221
1192362.375747689,3.6132913,18.1191,-3.409894,18.787895995025405
1192363.5318107668,3.6874714,18.150208,-3.204104,18.79611072035643
1192364.6878738445,3.7353296,18.140636,-3.017457,18.765404564037013
1192365.8439369223,3.8190813,18.183708,-2.8834543,18.802843596261233
1192367.0,3.878904,18.210032,-2.677664,18.810131476923175
1192367.9075584556,3.979406,18.214817,-2.6010911,18.825007446660525
1192369.0636215333,4.0607653,18.248318,-2.4599094,18.85582347464614
1192370.2196846113,4.1516957,18.298569,-2.316335,18.906073428012082
1192371.375747689,4.264162,18.32489,-2.2110472,18.94395420167004
1192372.5318107668,4.4149156,18.339247,-2.0985804,18.97955478870346
1192373.6878738445,4.4867024,18.394285,-1.9813279,19.03696087443343
1192374.8439369223,4.5943837,18.492393,-1.8880045,19.147885560585923
1192376.0,4.7331724,18.53068,-1.7372513,19.204350140264406
1192376.9075584556,4.8097453,18.597681,-1.6223917,19.277954851510106
1192378.0636215333,4.8839254,18.61204,-1.5817122,19.307060204961136
1192379.2196846113,4.9772487,18.676647,-1.4501023,19.382800222484004
1192380.375747689,5.025107,18.729292,-1.3615648,19.439442838911614
1192381.5318107668,5.068179,18.710148,-1.2299547,19.423410234096306
1192382.6878738445,5.111252,18.724506,-1.0768087,19.439432577313973
1192383.8439369223,5.1638956,18.731684,-0.97152066,19.45470780136166
1192385.0,5.21654,18.760399,-0.9021264,19.49304214976149
1192386.9075584556,5.254826,18.68622,-0.83751786,19.42908773834981
1192388.0636215333,5.2955055,18.712542,-0.7394086,19.461457593922614
1192389.2196846113,5.34815,18.734077,-0.63412064,19.492830950134024
1192390.375747689,5.4295087,18.712542,-0.57908374,19.492925147423925
1192391.5318107668,5.4510446,18.822615,-0.46901,19.601650263422062
1192392.6878738445,5.55394,18.937475,-0.4115802,19.739392269273566
1192393.8439369223,5.604191,19.054728,-0.38765112,19.865545280945657
1192395.0,5.673585,19.215052,-0.4115802,20.039390918287936
1192395.9075584556,5.747765,19.346663,-0.41875893,20.186766228701632
1192397.0636215333,5.8386955,19.573988,-0.45704544,20.43135487186518
1192398.2196846113,5.9009113,19.71517,-0.4091873,20.58339419400622
1192399.375747689,5.9990206,19.923353,-0.34936458,20.80986060817304
1192400.5318107668,6.109094,20.062141,-0.27997026,20.97352889599653
1192401.6878738445,6.3148847,20.153072,-0.21296883,21.120355951878032
1192402.8439369223,6.381886,20.26554,-0.18186101,21.247438759425904
1192404.0,6.458459,20.49765,-0.12443122,21.491412966710488
1192404.9075584556,6.6833925,20.646011,-0.023929082,21.700831277214768
1192406.0636215333,6.953791,20.746513,0.055036888,21.880951533009043
1192407.2196846113,7.185903,20.880516,0.27518442,22.084131787703942
1192408.375747689,7.398872,21.004948,0.3804724,22.273210514028946
1192409.5318107668,7.63577,21.131771,0.54797596,22.475698136922887
1192410.6878738445,7.9133472,21.253809,0.6939433,22.689799871745095
1192411.8439369223,8.17896,21.411741,0.86862564,22.93714345412581
1192413.0,8.470895,21.586424,1.093559,23.214771902719225
1192413.9075584556,8.786758,21.761106,1.3376356,23.5062144866456
1192415.0636215333,9.107409,21.93818,1.6295704,23.809328845942655
1192416.2196846113,9.497452,22.096113,1.9143264,24.126840857576234
1192417.375747689,9.916211,22.239687,2.215833,24.450865717564664
1192418.5318107668,10.418722,22.433514,2.4862316,24.859478394976804
1192419.6878738445,10.875768,22.581873,2.7997024,25.2202627128767
1192420.8439369223,11.261025,22.873808,3.2304258,25.699366282474646
1192422.0,11.727643,23.10592,3.6324344,26.16516250765801
1192422.9075584556,12.22776,23.31171,4.0153,26.628491730319613
1192424.0636215333,12.79488,23.586895,4.424487,27.196077937242972
1192425.2196846113,13.29739,23.926687,4.8312817,27.79655040599146
1192426.375747689,13.792723,24.242552,5.1686816,28.366455624727095
1192427.5318107668,14.402914,24.603882,5.6137624,29.05700035180806
1192428.6878738445,14.9317465,24.926924,6.0038066,29.67076485923883
1192429.8439369223,15.439043,25.28586,6.3938503,30.30874603731172
1192431.0,15.984626,25.604116,6.812609,30.943346068067896
1192432.9075584556,16.59721,25.896051,7.2768335,31.60735900016677
1192434.0636215333,17.18108,26.14252,7.736272,32.22531251011825
1192435.2196846113,17.76495,26.436848,8.222033,32.895321967275116
1192436.375747689,18.202852,26.951324,8.640791,33.650868568174594
1192437.5318107668,18.631182,27.372477,9.064336,34.329806683894226
1192438.6878738445,19.267696,27.79602,9.420879,35.10862854230363
1192439.8439369223,19.968819,28.123848,9.870746,35.87668024188388
1192441.0,20.516794,28.52825,10.368471,36.63748183184506
1192441.9075584556,20.961874,29.021189,10.765694,37.383549053925215
1192443.0636215333,21.41892,29.389698,11.1007,38.02301964583565
1192444.2196846113,21.796999,29.806063,11.466816,38.665209506012324
1192445.375747689,22.376083,30.21525,12.0650425,39.486905089057
1192446.5318107668,23.120277,30.504793,12.493373,40.26380475621631
1192447.6878738445,23.661076,30.861336,12.900167,40.97173276553679
1192448.8439369223,24.065477,31.304024,13.33807,41.67725054697112
1192450.0,24.558416,31.60553,13.720935,42.31181135669071
1192450.9075584556,24.934103,31.916609,14.149265,42.90199438853298
1192452.0636215333,25.032211,32.519623,14.412485,43.495484725266316
1192453.2196846113,25.223644,33.010166,14.6900625,44.06473887634191
1192454.375747689,25.498829,33.270992,15.283504,44.61764991069477
1192455.5318107668,25.675903,33.65386,15.872159,45.20796079327501
1192456.6878738445,26.223879,33.83572,15.896089,45.66435615686442
1192457.8439369223,26.264559,34.201836,16.034878,46.00771628444799
1192459.0,26.599566,34.448303,16.444065,46.525581830777675
1192459.9075584556,27.15472,34.658882,16.99204,47.19477029428074
1192461.0636215333,27.444263,34.850315,17.415585,47.65537354910377
1192462.2196846113,28.061634,34.9556,17.551981,48.13960231591363
1192463.375747689,28.645502,35.137463,17.851095,48.722353017967
1192464.5318107668,29.047512,35.278645,18.255495,49.20979418897415
1192465.6878738445,29.394484,35.55383,18.755613,49.79842905454875
1192466.8439369223,29.77017,35.675865,19.133694,50.250657820696844
1192468.0,30.078856,35.857727,19.719955,50.78770312858507
1192469.9075584556,30.162607,36.02523,20.248789,51.162618321933735
1192471.0636215333,30.380362,36.07309,20.476114,51.41503147854857
1192472.2196846113,29.995104,35.96541,20.7848,51.23694849889986
1192473.375747689,29.16955,36.597137,21.237059,51.39285707925519
1192474.5318107668,29.39927,36.857964,21.36867,51.76337164759553
1192475.6878738445,30.186535,36.597137,21.825714,52.220102676199225
1192476.8439369223,30.89005,36.27888,22.24208,52.58386107717177
1192478.0,31.538528,36.199913,22.612982,53.07032508423777
1192478.9075584556,31.93336,36.252556,23.00781,53.51024778880057
1192480.0636215333,32.06736,36.27888,23.570145,53.851875053195926
1192481.2196846113,32.450226,36.637817,23.699362,54.37836482631313
1192482.375747689,33.036488,36.783783,23.852509,54.89442974255506
1192483.5318107668,33.603607,36.802925,24.319124,55.45338117818831
1192484.6878738445,33.95776,36.860355,24.977175,55.997093727480625
1192485.8439369223,34.199444,36.872322,25.721369,56.48680308545511
1192487.0,34.56795,36.841213,26.101841,56.864085731709
1192488.9075584556,34.9556,36.79814,26.381811,57.201372627405725
1192490.0636215333,35.190105,36.743103,26.826893,57.51592210869163
1192491.2196846113,35.4629,36.63303,27.21933,57.796955707370955
1192492.375747689,35.862514,36.417667,27.592623,58.083725983645486
1192493.5318107668,36.05634,36.202305,28.147778,58.334929054948795
1192494.6878738445,35.88405,36.12095,28.674217,58.43456848363038
1192495.8439369223,35.52272,36.101803,29.009224,58.367275875539924
1192497.0,35.202072,36.020447,29.413626,58.32512211423881
1192497.9075584556,34.84792,35.87687,29.825207,58.23289707644768
1192499.0636215333,34.620594,35.790726,30.217644,58.24661024841401
1192500.2196846113,34.43395,35.64476,30.679474,58.28787140543713
1192501.375747689,34.235336,35.52033,31.150877,58.34491590713731
1192502.5318107668,34.051083,35.369576,31.509813,58.338250532456264
1192503.6878738445,33.81179,35.276253,31.911823,58.36107963281212
1192504.8439369223,33.756756,35.170963,32.416725,58.54365271928742
1192506.0,33.735218,34.974743,32.82113,58.63893037820926
1192506.9075584556,33.673004,34.766563,33.038883,58.60164580542661
1192508.0636215333,33.560535,34.663666,33.36671,58.66188358951561
1192509.2196846113,33.33321,34.587093,33.71129,58.68407760678232
1192510.375747689,33.046062,34.47702,34.086975,58.673920837445905
1192511.5318107668,32.648838,34.340626,34.47463,58.59799766595289
1192512.6878738445,32.342545,34.146797,34.725883,58.463073068099355
1192513.8439369223,32.103256,33.91947,35.008244,58.36717089979582
1192515.0,31.95011,33.527035,35.42222,58.30613410809985
1192515.9075584556,31.773033,33.215958,35.838585,58.28575869523428
1192517.0636215333,31.567244,32.84745,36.199913,58.18831125291062
1192518.2196846113,31.299238,32.495693,36.391346,57.96501036506945
1192519.375747689,31.00491,32.146328,36.42724,57.633624404589405
1192520.5318107668,30.708189,31.751497,36.51099,57.30796475343397
1192521.6878738445,30.509579,31.32556,36.56603,57.001751464597476
1192522.8439369223,30.243965,30.835014,36.573208,56.59589252510013
1192524.0,30.00946,30.456934,36.807713,56.41808446289474
1192525.9075584556,29.68881,30.081247,37.049397,56.20466776304899
1192527.0636215333,29.363375,29.731884,37.28151,56.000925933953816
1192528.2196846113,28.91351,29.435162,37.30065,55.62156338066059
1192529.375747689,28.492357,29.234158,37.29826,55.295665294957914
1192530.5318107668,27.915667,29.011618,37.326973,54.90228917245202
1192531.6878738445,27.372477,28.83215,37.24801,54.47898328436507
1192532.8439369223,26.94893,28.674217,37.11879,54.09491768892978
1192534.0,26.582815,28.482784,36.867535,53.63888677714244
1192534.9075584556,26.36506,28.274603,36.661743,53.27901053331657
1192536.0636215333,26.29806,28.09992,36.513386,53.05111517164362
1192537.2196846113,26.37942,27.989845,36.362633,52.929635378992685
1192538.375747689,26.508636,27.860628,36.209484,52.82091542827648
1192539.5318107668,26.666567,27.807985,35.879265,52.64704628244531
1192540.6878738445,26.731176,27.74577,35.486828,52.380325359217274
1192541.8439369223,26.807749,27.712269,35.137463,52.16576047228422
1192543.0,26.843643,27.676374,34.809635,51.94490866420452
1192543.9075584556,26.752712,27.583052,34.4507,51.60797503758162
1192545.0636215333,26.630674,27.365297,34.177906,51.24628314460787
1192546.2196846113,26.400955,27.085327,34.003223,50.86103162536799
1192547.375747689,26.106627,26.637854,33.82136,50.348938730543715
1192548.5318107668,25.785978,26.161665,33.582073,49.77052344476636
1192549.6878738445,25.431828,25.517971,33.287743,49.05118299707433
1192550.8439369223,25.132713,24.824028,33.010166,48.348285266725945
1192552.0,24.792921,24.072655,32.754128,47.61317623832346
1192552.9075584556,24.515343,23.445713,32.409546,46.91569217662822
1192554.0636215333,24.278446,22.75177,31.971645,46.14403604274166
1192555.2196846113,24.017618,22.132008,31.650995,45.48029504077577
1192556.375747689,23.809435,21.548138,31.332739,44.86593339637982
1192557.5318107668,23.601252,20.997768,31.014482,44.269893276104156
1192558.6878738445,23.433748,20.471329,30.744083,43.742593611543356
1192559.8439369223,23.266245,20.038212,30.394718,43.20517305666641
1192561.0,23.101135,19.619453,30.030996,42.666686009806874
1192561.9075584556,23.010204,19.186337,29.698381,42.18505481352781
1192563.0636215333,22.936024,18.815435,29.39209,41.760947615396624
1192564.2196846113,22.773306,18.461287,29.138441,41.33390046652367
1192565.375747689,22.675198,18.126278,28.89915,40.962024232146874
1192566.5318107668,22.579481,17.894167,28.61918,40.60900932952748
1192567.6878738445,22.4383,17.623768,28.332031,40.209184100063325
1192568.8439369223,22.304296,17.406013,28.073597,39.8569662308886
1192570.0,22.143972,17.23133,27.860628,39.54097649350693
1192571.9075584556,21.878359,17.037506,27.635696,39.14934094767539
1192573.0636215333,21.610353,16.872395,27.398798,38.76053665347576
1192574.2196846113,21.263382,16.750357,27.166685,38.35015837769902
1192575.375747689,20.885302,16.640284,26.94893,37.938630963396136
1192576.5318107668,20.454578,16.532602,26.712032,37.4866555405722
1192577.6878738445,19.966425,16.479958,26.491886,37.04142501037703
1192578.8439369223,19.478271,16.386635,26.300453,36.601074789927615
1192580.0,18.865688,16.384241,26.089876,36.12532583319908
1192580.9075584556,18.296175,16.3986,25.958267,35.74207222915193
1192582.0636215333,17.693163,16.441671,25.7788,35.325954929156694
1192583.2196846113,16.98247,16.561317,25.54908,34.86311800344009
1192584.375747689,16.204773,16.664211,25.391148,34.423843379145715
1192585.5318107668,15.4199,16.731213,25.305002,34.03013268680234
1192586.6878738445,14.563239,16.755142,25.26911,33.63555609475463
1192587.8439369223,13.689827,16.822144,25.092033,33.16633853954569
1192589.0,12.77813,16.781464,24.895815,32.62973712420039
1192589.9075584556,11.902325,16.657034,24.713955,32.09208148164912
1192591.0636215333,10.96909,16.573282,24.615845,31.637547893976375
1192592.2196846113,9.990392,16.477566,24.591917,31.24228697347409
1192593.375747689,9.023657,16.403385,24.532093,30.859698833146815
1192594.5318107668,8.107173,16.386635,24.493807,30.564597854845122
1192595.6878738445,7.0973654,16.393814,24.390913,30.23319979858702
1192596.8439369223,6.2239537,16.436886,24.288017,29.980270025952546
1192598.0,5.410365,16.40817,24.271267,29.792524128838327
1192598.9075584556,4.5895977,16.34117,24.240158,29.59194998444187
1192600.0636215333,3.9387267,16.384241,24.17555,29.468867283386952
1192601.2196846113,3.3117847,16.377064,24.06069,29.293223558279653
1192602.375747689,2.7183435,16.322025,23.955402,29.114587004905655
1192603.5318107668,2.2182257,16.257418,23.876436,28.970819134863284
1192604.6878738445,1.720501,16.164095,23.842936,28.856952159923647
1192605.8439369223,1.3448143,16.085129,23.8214,28.77497173600915
1192607.0,0.95955616,15.9678755,23.83815,28.708033569546245
1192608.9075584556,0.63412064,15.77405,23.87165,28.619546399464024
1192610.0636215333,0.27279153,15.623297,23.83815,28.50296861366459
1192611.2196846113,0.069394335,15.460579,23.842936,28.416894898793345
1192612.375747689,-0.12443122,15.235646,23.876436,28.32356948246324
1192613.5318107668,-0.27997026,14.998748,23.974546,28.281083444947868
1192614.6878738445,-0.43550926,14.857566,24.041548,28.265402279044352
1192615.8439369223,-0.52165395,14.575203,24.14923,28.211592917232796
1192617.0,-0.60301286,14.29284,24.21623,28.126050117068083
1192617.9075584556,-0.57669085,14.005692,24.309553,28.06147444086192
1192619.0636215333,-0.6197632,13.665898,24.369375,27.94650805487339
1192620.2196846113,-0.6484781,13.383535,24.441164,27.873105866001023
1192621.375747689,-0.5838696,13.053313,24.551237,27.81174432170593
1192622.5318107668,-0.50968945,12.701556,24.649345,27.734085834683686
1192623.6878738445,-0.3613291,12.356977,24.71874,27.637683450040377
1192624.8439369223,-0.25364825,11.9645405,24.780956,27.519272284797147
1192626.0,-0.10050214,11.598426,24.881458,27.45214998070979
1192626.9075584556,0.10050214,11.203596,24.993925,27.39027109973513
1192628.0636215333,0.32064968,10.789622,25.087248,27.310964306184285
1192629.2196846113,0.4737958,10.399578,25.077677,27.152635024146566
1192630.375747689,0.63172776,9.944926,25.02264,26.933866147989793
1192631.5318107668,0.8040171,9.466345,25.053747,26.79455858744694
1192632.6878738445,0.95237744,9.045193,25.094427,26.691811584337977
1192633.8439369223,1.0169859,8.626433,25.173393,26.629857711913083
1192635.0,1.0576653,8.224425,25.238,26.565324512744976
1192635.9075584556,1.1414171,7.853524,25.369612,26.581908984218806
1192637.0636215333,1.1390243,7.4515157,25.431828,26.525465839545987
1192638.2196846113,1.1557746,7.099758,25.534721,26.528557351134083
1192639.375747689,1.2419193,6.6762137,25.568222,26.454643621811734
1192640.5318107668,1.2658484,6.3148847,25.592152,26.3901190777378
1192641.6878738445,1.3065279,6.0014133,25.690262,26.414267704775376
1192642.8439369223,1.2443122,5.666406,25.819479,26.463219109536652
1192644.0,1.2610626,5.2452545,25.931946,26.487143994734595
1192645.9075584556,1.3567789,4.9652843,26.1162,26.618617537417524
1192647.0636215333,1.3424214,4.6709566,26.259773,26.705722397751956
1192648.2196846113,1.3567789,4.338342,26.36506,26.754036127209837
1192649.375747689,1.3615648,4.051193,26.489492,26.83205563958736
1192650.5318107668,1.3831009,3.7425082,26.637854,26.9350069881551
1192651.6878738445,1.4189945,3.441002,26.769463,27.026990018561133
1192652.8439369223,1.380708,3.2208543,26.93218,27.159207951549185
1192654.0,1.2658484,2.9719918,27.090113,27.282033094764376
1192654.9075584556,1.1629534,2.7374868,27.343761,27.505046086415977
1192656.0636215333,1.0552725,2.4766598,27.537586,27.668864930126574
1192657.2196846113,0.95237744,2.2325833,27.748161,27.85411800545084
1192658.375747689,1.0241647,1.9837208,27.97788,28.066810129394447
1192659.5318107668,1.0768087,1.6870002,28.217173,28.28806000352666
1192660.6878738445,1.0576653,1.509925,28.489964,28.549546022901048
1192661.8439369223,1.1246668,1.3567789,28.688576,28.74265327526816
1192663.0,1.0983448,1.2299547,28.90633,28.9533256109318
1192663.9075584556,1.0648441,1.067237,29.22698,29.265837553227037
1192665.0636215333,1.0193789,0.9212696,29.538057,29.569996319798523
1192666.2196846113,1.0002356,0.8446966,29.751026,29.779817522178252
1192667.375747689,0.9954498,0.7418015,29.8611,29.88689483669594
1192668.5318107668,0.8925547,0.650871,30.019032,30.03935034530802
1192669.6878738445,0.81358874,0.6221561,30.040567,30.058021733509193
1192670.8439369223,0.75615895,0.5934412,30.38754,30.402738956665115
1192672.0,0.7418015,0.42115182,30.789549,30.801363053350293
1192672.9075584556,0.7226582,0.2656128,31.076698,31.086233988966164
1192674.0636215333,0.7776951,0.15075321,31.442812,31.452789425840013
1192675.2196846113,0.7202653,0.07657306,31.6151,31.623396299984954
1192676.375747689,0.5838696,0.045465253,31.799356,31.804748274648716
1192677.5318107668,0.50968945,0.033500712,32.055397,32.05946634709871
1192678.6878738445,0.3326142,0.045465253,32.301865,32.303609423305886
1192679.8439369223,0.047858164,0.0598227,32.495693,32.49578330660066
1192681.0,-0.2392908,-0.06221561,32.720627,32.72156112018834
1192682.9075584556,-0.42115182,-0.21057591,32.835484,32.83885991601441
1192684.0636215333,-0.58626246,-0.34697166,32.909664,32.91671425883428
1192685.2196846113,-0.7106937,-0.50968945,33.089134,33.10068968678171
1192686.375747689,-0.832732,-0.598227,33.29492,33.31070422452448
1192687.5318107668,-1.0074143,-0.7872668,33.443283,33.46771355208353
1192688.6878738445,-1.1127023,-0.93323416,33.74479,33.77602529235665
1192689.8439369223,-1.1797037,-1.0696299,33.98169,34.018980940040926
1192691.0,-1.1749178,-1.2754201,34.201836,34.24576928671828
1192691.9075584556,-1.0959519,-1.3783151,34.228157,34.27342402939413
1192693.0636215333,-1.014593,-1.457281,34.29516,34.34109879276157
1192694.2196846113,-0.9021264,-1.509925,34.37652,34.42148795240557
1192695.375747689,-0.81358874,-1.6223917,34.529663,34.577329398894484
1192696.5318107668,-0.6006199,-1.8473251,34.613415,34.66787925806238
1192697.6878738445,-0.34697166,-2.0028641,34.749813,34.80921368647791
1192698.8439369223,-0.2656128,-2.1727605,34.87424,34.94286842729836
1192700.0,-0.11485959,-2.3354783,34.957993,35.03610889073207
1192700.9075584556,0.023929082,-2.4479449,35.113533,35.19876711727969
1192702.0636215333,0.14357449,-2.6010911,35.211643,35.30787576878744
1192703.2196846113,0.3278284,-2.7279153,35.336075,35.44273112712176
1192704.375747689,0.48576033,-2.895419,35.43897,35.560371327429394
1192705.5318107668,0.63651353,-3.0294216,35.35761,35.49286026254463
1192706.6878738445,0.8542682,-3.172996,35.31693,35.46946887674592
1192707.8439369223,1.0026284,-3.3620358,35.35043,35.52409674592541
1192709.0,1.2586696,-3.484074,35.36718,35.56065862651928
1192709.9075584556,1.5075321,-3.6802926,35.371967,35.59484872988273
1192711.0636215333,1.7659662,-3.852582,35.43418,35.6867221380539
1192712.2196846113,2.0267932,-4.000942,35.43418,35.71689431956998
1192713.375747689,2.2541194,-4.166053,35.460506,35.77547396812936
1192714.5318107668,2.4551237,-4.307235,35.494007,35.83858868096756
1192715.6878738445,2.6321988,-4.4220943,35.47247,35.843821174948886
1192716.8439369223,2.8260245,-4.524989,35.4964,35.89507421478219
1192718.0,2.998314,-4.630277,35.4629,35.88936650805256
1192718.9075584556,3.1897464,-4.6781354,35.41504,35.86480853313797
1192720.0636215333,3.2974274,-4.7212076,35.405468,35.87074006707406
1192721.2196846113,3.4864671,-4.757101,35.364788,35.85322430477525
1192722.375747689,3.6108983,-4.78103,35.326504,35.83097429956181
1192723.5318107668,3.7329366,-4.8336744,35.304966,35.82931548503252
1192724.6878738445,3.8286529,-4.7786374,35.218822,35.747159068897226
1192725.8439369223,3.9315479,-4.7594943,35.182926,35.7204162462198
1192727.0,4.020086,-4.7403507,35.149426,35.69473580706072
1192728.9075584556,4.0488005,-4.7403507,35.11114,35.66028410357089
1192730.0636215333,4.0176926,-4.7259936,35.022602,35.567675214803394
1192731.2196846113,3.9817991,-4.6733494,34.9221,35.457692918423795
1192732.375747689,3.9530842,-4.5943837,34.869457,35.39229107800121
1192733.5318107668,3.8717253,-4.462774,34.78092,35.27915821870097
1192734.6878738445,3.8095098,-4.2976627,34.725883,35.197574060280864
1192735.8439369223,3.7353296,-4.0033355,34.711525,35.14070787806958
1192737.0,3.6085055,-3.852582,34.615807,35.015964848501646
1192737.9075584556,3.541504,-3.5295393,34.46027,34.8211158167736
1192739.0636215333,3.4745026,-3.2471762,34.40523,34.73235052431887
1192740.2196846113,3.4242516,-2.9815636,34.218586,34.51850008850824
1192741.375747689,3.3668218,-2.6992004,34.096546,34.368526604473914
1192742.5318107668,3.3500714,-2.4551237,34.036724,34.28919934060251
1192743.6878738445,3.278284,-2.2110472,33.90751,34.13729793210622
1192744.8439369223,3.1418884,-1.9717562,33.76872,33.97183739023683
1192746.0,3.0150642,-1.746823,33.658646,33.838535034436205
1192746.9075584556,2.969599,-1.5075321,33.546177,33.711083675382795
1192748.0636215333,2.9265265,-1.222776,33.39782,33.548086670535746
1192749.2196846113,2.8762755,-0.9739136,33.29014,33.428354576194224
1192750.375747689,2.8690968,-0.7106937,33.15135,33.28286058627609
1192751.5318107668,2.8690968,-0.42593765,33.11067,33.23747293610568
1192752.6878738445,2.8978117,-0.13400285,32.99581,33.12308480453723
1192753.8439369223,2.9313123,0.15793194,32.835484,32.966445726102464
1192755.0,3.0054924,0.4091873,32.754128,32.89427487957932
1192755.9075584556,3.101209,0.70830077,32.572266,32.72723177442937
1192757.0636215333,3.1083877,0.9164838,32.466976,32.62830898520102
1192758.2196846113,3.2088897,1.170132,32.316223,32.496222103344856
1192759.375747689,3.3548572,1.4213874,32.096077,32.30222233474347
1192760.5318107668,3.4242516,1.6750357,31.907036,32.13394140035849
1192761.6878738445,3.5893621,1.9071478,31.770641,32.02958573829581
1192762.8439369223,3.7281508,2.1990826,31.650995,31.945587444265108
1192764.0,3.929155,2.4335876,31.490671,31.82802173637469
1192765.9075584556,4.189982,2.7207365,31.272917,31.66944416865641
1192767.0636215333,4.5202036,2.9743848,31.129341,31.59612439237137
1192768.2196846113,4.824103,3.1442811,30.983374,31.513932439705176
1192769.375747689,5.1447525,3.3620358,30.777584,31.385210527950804
1192770.5318107668,5.460616,3.5845764,30.691439,31.378845468844354
1192771.6878738445,5.7669086,3.8071167,30.547865,31.319697131779513
1192772.8439369223,6.0492716,4.010514,30.435398,31.288837639854354
1192774.0,6.3292418,4.2019467,30.334896,31.27173761023401
1192774.9075584556,6.613998,4.448416,30.184143,31.21883827270818
1192776.0636215333,6.855682,4.6398487,30.090818,31.208747164106725
1192777.2196846113,7.1021514,4.8815327,29.995104,31.208591444993274
1192778.375747689,7.3845143,5.061001,29.87785,31.190234099656987
1192779.5318107668,7.6620917,5.259612,29.75342,31.171095093149244
1192780.6878738445,7.9755626,5.436687,29.65531,31.18660891341968
1192781.8439369223,8.293819,5.6137624,29.626595,31.273581393605046
1192783.0,8.612076,5.798016,29.516521,31.28913316967207
1192783.9075584556,8.942298,5.9559484,29.444735,31.34374633135758
1192785.0636215333,9.308413,6.1497736,29.349018,31.397947790805535
1192786.2196846113,9.645813,6.3388133,29.315517,31.50590102600646
1192787.375747689,10.011928,6.5422106,29.315517,31.66131328276238
1192788.5318107668,10.373257,6.769537,29.282017,31.794144296878112
1192789.6878738445,10.679549,6.99447,29.255693,31.91975799304484
1192790.8439369223,10.983448,7.31512,29.188692,32.033214812971366
1192792.0,11.299312,7.5568037,29.155191,32.16838348565496
1192792.9075584556,11.607997,7.8248096,29.078619,32.272888351918894
1192794.0636215333,11.93104,8.169388,29.047512,32.44759727878611
1192795.2196846113,12.294762,8.463716,29.006832,32.62195524246706
1192796.375747689,12.627376,8.791544,28.942223,32.777952082627756
1192797.5318107668,12.94324,9.095444,28.927866,32.9708355151745
1192798.6878738445,13.273461,9.442415,28.987688,33.25101537601657
1192799.8439369223,13.627611,9.810924,28.970938,33.48553807094849
1192801.0,13.886045,10.14593,28.966152,33.68679419288854
1192802.9075584556,14.187552,10.471366,28.970938,33.91535620126234
1192804.0636215333,14.457951,10.823123,28.985296,34.1514234373788
1192805.2196846113,14.615883,11.172488,28.968546,34.31654384307879
1192806.375747689,14.833637,11.514674,28.958973,34.51444076308892
1192807.5318107668,14.98439,11.880789,28.997261,34.73508653273721
1192808.6878738445,15.206931,12.21101,29.033154,34.97547064510465
1192809.8439369223,15.3840065,12.5675535,29.030762,35.17664280837568
1192811.0,15.580225,12.964776,29.09537,35.45940472170537
1192811.9075584556,15.735764,13.3524275,29.12887,35.698636616590164
1192813.0636215333,15.958304,13.790329,29.133656,35.96679791712063
1192814.2196846113,16.173666,14.221053,29.126478,36.22399123499299
1192815.375747689,16.436886,14.661348,29.097763,36.49391946829319
1192816.5318107668,16.738392,15.094464,29.155191,36.85161831506781
1192817.6878738445,17.054256,15.563475,29.17673,37.206867313468635
1192818.8439369223,17.331833,16.008554,29.222193,37.55799249214545
1192820.0,17.654877,16.441671,29.22698,37.897751741729614
1192821.9075584556,17.958775,16.915468,29.274837,38.284027198509534
1192823.0636215333,18.260283,17.355762,29.289194,38.63311138143508
1192824.2196846113,18.492393,17.796057,29.370554,39.00381629892919
1192825.375747689,18.738863,18.25071,29.396875,39.34983687135811
1192826.5318107668,18.956617,18.698183,29.444735,39.69846086193271
1192827.6878738445,19.119335,19.12412,29.492592,40.01367165726096
1192828.8439369223,19.258123,19.562023,29.566772,40.3452853730847
1192830.0,19.4017,19.952068,29.569166,40.6059916552001
1192830.9075584556,19.530916,20.380398,29.674454,40.95595832886316
1192832.0636215333,19.724741,20.715405,29.724705,41.252290835396416
1192833.2196846113,19.86353,21.1222,29.727097,41.525985273660986
1192834.375747689,19.966425,21.473957,29.739061,41.763628981210374
1192835.5318107668,20.162643,21.899895,29.75342,42.0880455171403
1192836.6878738445,20.366041,22.273188,29.734276,42.36741317264014
1192837.8439369223,20.590975,22.701519,29.717525,42.69049669989342
1192839.0,20.844622,23.101135,29.739061,43.04152011456879
1192839.9075584556,21.134165,23.519894,29.703169,43.38336769616925
1192841.0636215333,21.4261,23.962582,29.67924,43.7508900971663
1192842.2196846113,21.69889,24.345448,29.674454,44.09212952161553
1192843.375747689,21.97886,24.812063,29.676846,44.4907175231338
1192844.5318107668,22.218151,25.271502,29.609844,44.82229254399133
1192845.6878738445,22.402405,25.71419,29.58113,45.14565947261182
1192846.8439369223,22.596231,26.147306,29.561987,45.477272805778114
1192848.0,22.780485,26.482313,29.4902,45.715810117564295
1192848.9075584556,23.03892,26.872358,29.382519,46.002694291007835
1192850.0636215333,23.23753,27.224115,29.253302,46.22651745413371
1192851.2196846113,23.515108,27.57348,29.12887,46.4946036765447
1192852.375747689,23.716112,27.860628,29.021189,46.7000853524343
1192853.5318107668,23.938652,28.157349,28.90633,46.91983883554807
1192854.6878738445,24.204266,28.413391,28.82497,47.1597940646324
1192855.8439369223,24.510557,28.67661,28.640717,47.364607417526834
1192857.0,24.847958,28.877615,28.516285,47.58693281836111
1192858.9075584556,25.149464,29.030762,28.377497,47.75524073620558
1192860.0636215333,25.415077,29.234158,28.28178,47.96270647965243
1192861.2196846113,25.690262,29.406448,28.061634,48.08517493318813
1192862.375747689,25.908016,29.552416,27.834307,48.159310944650784
1192863.5318107668,26.09227,29.717525,27.726625,48.298070145391414
1192864.6878738445,26.262167,29.851528,27.544765,48.36868013886566
1192865.8439369223,26.432062,30.052532,27.389227,48.497199268003065
1192867.0,26.604353,30.241573,27.22651,48.617149061242145
1192867.9075584556,26.790998,30.363611,27.037468,48.69015426804837
1192869.0636215333,27.054218,30.5359,26.84125,48.83466598599834
1192870.2196846113,27.1619,30.708189,26.645031,48.89498297638196
1192871.375747689,27.291117,30.961838,26.460777,49.0266580432489
1192872.5318107668,27.45144,31.210701,26.329168,49.20278958105145
1192873.6878738445,27.530407,31.426062,26.10902,49.266637877714906
1192874.8439369223,27.671589,31.636639,25.931946,49.38683618483935
1192876.0,27.764912,31.849607,25.687868,49.44850216950577
1192876.9075584556,27.930023,32.048218,25.448578,49.545984539396706
1192878.0636215333,27.963524,32.340153,25.28586,49.67110716001391
1192879.2196846113,28.032919,32.67516,25.01307,49.79120705015155
1192880.375747689,28.073597,32.92881,24.828814,49.88891040282505
1192881.5318107668,28.114277,33.122635,24.587132,49.92042247979657
1192882.6878738445,28.166922,33.32364,24.426805,50.00509254377707
1192883.8439369223,28.341604,33.507893,24.1588,50.09663689343093
1192885.0,28.446892,33.732826,23.83815,50.15363007628102
1192885.9075584556,28.434927,34.077404,23.620396,50.276611302586424
1192887.0636215333,28.458857,34.273624,23.481607,50.358452231400776
1192888.2196846113,28.413391,34.448303,23.338032,50.38521713093746
1192889.375747689,28.33921,34.606236,23.122671,50.352361490659376
1192890.5318107668,28.267424,34.716312,22.912094,50.29148665472076
1192891.6878738445,28.209993,34.859886,22.725449,50.27386387820859
1192892.8439369223,28.054455,34.92928,22.467014,50.11859699494411
1192894.0,27.94438,35.024994,22.306688,50.05224178609565
1192894.9075584556,27.963524,35.137463,22.086542,50.04413370308961
1192896.0636215333,27.851057,35.180534,21.931004,49.94317055404493
1192897.2196846113,27.740984,35.247536,21.720427,49.837013718940675
1192898.375747689,27.494514,35.453327,21.55053,49.7726032948451
1192899.5318107668,27.322224,35.53708,21.37824,49.663035798571315
1192900.6878738445,27.2289,35.63758,21.263382,49.634479120308335
1192901.8439369223,27.149935,35.666294,21.0887,49.537226061706974
1192903.0,27.061398,35.73569,20.923588,49.46873089421486
1192904.9075584556,26.992002,35.730904,20.8183,49.3828643105604
1192906.0636215333,26.905859,35.781155,20.629261,49.29282616231318
1192907.2196846113,26.84125,35.793118,20.425863,49.1814586711211
1192908.375747689,26.8245,35.793118,20.318182,49.12768685982527
1192909.5318107668,26.814928,35.836193,20.198538,49.1045214793493
1192910.6878738445,26.795784,35.824226,20.138714,49.06074816232961
1192911.8439369223,26.728783,35.771584,20.038212,48.94449920764425
1192913.0,26.534958,35.819443,19.999926,48.85830055269513
1192913.9075584556,26.377026,35.855335,19.92096,48.76676322956549
1192915.0636215333,26.228666,35.831406,19.853958,48.64167168531686
1192916.2196846113,26.106627,35.764404,19.75585,48.486515403922816
1192917.375747689,25.998947,35.71176,19.693634,48.36439049065299
1192918.5318107668,25.891266,35.66151,19.69124,48.2684771180991
1192919.6878738445,25.601725,35.5634,19.523737,47.97270108072709
1192920.8439369223,25.429434,35.55622,19.497416,47.86491538617626
1192922.0,25.348076,35.608864,19.533308,47.875528965173174
1192922.9075584556,25.242788,35.659115,19.533308,47.85729777180313
1192924.0636215333,25.120749,35.699795,19.44477,47.78730452448564
1192925.2196846113,25.04657,35.747654,19.310768,47.72977263740568
1192926.375747689,24.929316,35.771584,19.241373,47.658235941147055
1192927.5318107668,24.888638,35.754833,19.093014,47.564646198170436
1192928.6878738445,24.795313,35.790726,18.935081,47.479689414017926
1192929.8439369223,24.716347,35.812263,18.765184,47.387214739415036
1192931.0,24.565594,35.800297,18.66947,47.2618110522856
1192931.9075584556,24.491415,35.829014,18.492393,47.17537760082976
1192933.0636215333,24.374163,35.817047,18.367962,47.05680297028499
1192934.2196846113,24.271267,35.757225,18.217209,46.89925633989941
1192935.375747689,24.103764,35.706974,18.06167,46.71405949383196
1192936.5318107668,23.933867,35.639973,17.93006,46.52445288897031
1192937.6878738445,23.80465,35.60169,17.755379,46.36157003286495
1192938.8439369223,23.67304,35.49879,17.602232,46.156424099875025
1192940.0,23.522287,35.41504,17.46823,45.96370419412331
1192941.9075584556,23.385891,35.295395,17.389263,45.771730071661864
1192943.0636215333,23.299746,35.182926,17.216974,45.575658407780224
1192944.2196846113,23.153778,35.00346,17.097328,45.31730654379702
1192945.375747689,23.084385,34.845528,16.939396,45.10036351596099
1192946.5318107668,23.029348,34.651703,16.834108,44.88294311050665
1192947.6878738445,22.933632,34.505733,16.67139,44.66018731611874
1192948.8439369223,22.880987,34.268837,16.534994,44.39931060283227
1192950.0,22.770914,34.005615,16.470387,44.11541707672489
1192950.9075584556,22.701519,33.780685,16.386635,43.87499801253341
1192952.0636215333,22.658447,33.558144,16.226309,43.62163858614238
1192953.2196846113,22.548372,33.352352,16.140165,43.37410967396925
1192954.375747689,22.462229,33.18724,16.089914,43.18367704345517
1192955.5318107668,22.321047,32.967094,16.018127,42.91431950490622
1192956.6878738445,22.285152,32.770878,15.941554,42.716408890365585
1192957.8439369223,22.254045,32.598587,15.867373,42.540379866424836
1192959.0,22.213366,32.440655,15.740549,42.3508513338325
1192959.9075584556,22.222937,32.234863,15.661584,42.16907083306192
1192961.0636215333,22.28276,32.16547,15.596975,42.12368078277497
1192962.2196846113,22.342583,31.964466,15.503652,41.967622366702514
1192963.375747689,22.440693,31.842428,15.369649,41.87781075508406
1192964.5318107668,22.55316,31.73714,15.269147,41.82150082759834
1192965.6878738445,22.627338,31.631851,15.228467,41.76693225295023
1192966.8439369223,22.75177,31.507421,15.096857,41.69263373166284
1192968.0,22.902523,31.368631,14.934139,41.61183819841429
1192968.9075584556,22.962345,31.237022,14.800137,41.49776965749217
1192970.0636215333,23.084385,31.134127,14.627847,41.42700330383267
1192971.2196846113,23.141813,30.990553,14.577596,41.33357218184746
1192972.375747689,23.20403,30.89723,14.501023,41.27160643784452
1192973.5318107668,23.232744,30.77519,14.378984,41.153710576057314
1192974.6878738445,23.165743,30.665117,14.297626,41.00516014603057
1192975.8439369223,23.184887,30.51915,14.182766,40.866959188763055
1192977.0,23.08917,30.440184,14.067906,40.71388648198047
1192978.9075584556,23.03892,30.306181,13.960226,40.54804991047334
1192980.0636215333,22.947989,30.229609,13.833402,40.395574885507024
1192981.2196846113,22.924059,30.107569,13.735292,40.25712903884858
1192982.375747689,22.926453,30.019032,13.570182,40.136197738342844
1192983.5318107668,22.873808,29.949638,13.500788,40.03077797611298
1192984.6878738445,22.806807,29.882637,13.44575,39.92381034760482
1192985.8439369223,22.761341,29.779741,13.335677,39.78381453799637
1192987.0,22.74459,29.69599,13.137066,39.64531119106717
1192987.9075584556,22.646482,29.602667,13.1011715,39.5072364910737
1192989.0636215333,22.536407,29.569166,12.952811,39.37004611639318
1192990.2196846113,22.426334,29.564379,12.852309,39.27053359666352
1192991.375747689,22.230116,29.605059,12.7087345,39.142681415028626
1192992.5318107668,22.048256,29.691204,12.529266,39.04709584732145
1192993.6878738445,21.87118,29.75342,12.304334,38.92314416221223
1192994.8439369223,21.720427,29.796492,12.098543,38.806991989733525
1192996.0,21.59121,29.841957,11.954968,38.7252373360703
1192996.9075584556,21.481136,29.889814,11.809001,38.65608217891582
1192998.0636215333,21.375849,29.880243,11.6223545,38.533556367580715
1192999.2196846113,21.239452,29.889814,11.4213505,38.40524117173007
1193000.375747689,21.06477,29.844349,11.299312,38.23720902550348
1193001.5318107668,20.957088,29.77017,11.055236,38.048400784846926
1193002.6878738445,20.832659,29.628988,10.792015,37.79344121239358
1193003.8439369223,20.74412,29.590702,10.490509,37.62949559197259
1193005.0,20.617296,29.578737,10.179431,37.46458851169389
1193005.9075584556,20.52158,29.691204,9.84921,37.412695415996374
1193007.0636215333,20.428257,29.868279,9.605133,37.439101944725905
1193008.2196846113,20.30861,30.076462,9.373021,37.48181864899281
1193009.375747689,20.227253,30.299002,9.138516,37.55907028673991
1193010.5318107668,20.093248,30.521544,8.798723,37.58617817448548
1193011.6878738445,19.911388,30.779976,8.382357,37.604975781438405
1193012.8439369223,19.684061,30.98816,7.9324903,37.5586570579529
1193014.0,19.39452,31.256166,7.5137315,37.5439939285107
1193015.9075584556,19.071478,31.459562,7.0471144,37.45780473683709
1193017.0636215333,18.698183,31.631851,6.5852833,37.33044335832283
1193018.2196846113,18.391891,31.840034,6.0827723,37.269954903791934
1193019.375747689,18.03774,32.036255,5.491724,37.17311839521673
1193020.5318107668,17.57591,32.21572,4.8887115,37.022489483781776
1193021.6878738445,17.1069,32.37126,4.323985,36.86789047230428
1193022.8439369223,16.530209,32.553123,3.9171906,36.719177670987385
1193024.0,15.90566,32.73498,3.3620358,36.54958577544322
1193024.9075584556,15.209324,32.859413,2.7949166,36.31633403914141
1193026.0636215333,14.474701,32.92881,2.1249025,36.03246741051752
1193027.2196846113,13.718542,32.868984,1.3998512,35.64446783415571
1193028.375747689,13.163387,32.84745,0.74658734,35.394732962271625
1193029.5318107668,12.632162,32.77327,0.09571633,35.12360893904515
1193030.6878738445,12.1655445,32.73498,-0.66283554,34.92876664777855
1193031.8439369223,11.7755,32.713448,-1.3065279,34.792802351236126
1193033.0,11.332812,32.64405,-1.9502201,34.61025840221781
1193033.9075584556,10.87816,32.61055,-2.5388756,34.47068646836578
1193035.0636215333,10.43308,32.541157,-3.177782,34.32017417823769
1193036.2196846113,10.0837145,32.316223,-3.749687,34.05994303725724
1193037.375747689,9.724778,32.055397,-4.3526998,33.77966517782278
1193038.5318107668,9.361056,31.780212,-4.955713,33.49881095708397
1193039.6878738445,8.793938,31.528957,-5.412758,33.17689594013064
1193040.8439369223,8.171782,31.203522,-5.8721967,32.785980240698905
1193042.0,7.5568037,30.83262,-6.2239537,32.3495492686448
1193042.9075584556,6.9968634,30.507185,-6.5254602,31.972270249143534
1193044.0636215333,6.405815,30.136284,-6.932255,31.57983911497818
1193045.2196846113,5.9176617,29.825207,-7.441944,31.304060808266264
1193046.375747689,5.4821525,29.509342,-7.9540267,31.05031082051407
1193047.5318107668,5.0274997,29.238943,-8.435001,30.843812716017293
1193048.6878738445,4.6039553,28.968546,-8.899225,30.652394153787384
1193049.8439369223,4.2043395,28.796255,-9.382592,30.57668728451055
1193051.0,3.8142955,28.628752,-9.784601,30.494142191050813
1193051.9075584556,3.390751,28.535429,-10.294291,30.52442182500306
1193053.0636215333,2.9839563,28.521072,-10.753729,30.626756776304845
1193054.2196846113,2.5412683,28.5115,-11.244275,30.75381922783266
1193055.375747689,2.0722585,28.583286,-11.770715,30.98141742173594
1193056.5318107668,1.588891,28.607216,-12.187081,31.135547613316486
1193057.6878738445,1.0696299,28.70054,-12.735057,31.4173006671137
1193058.8439369223,0.46422416,28.822578,-13.187317,31.699555774415842
1193060.0,-0.09571633,29.047512,-13.639576,32.09057725354514
1193061.9075584556,-0.75615895,29.296373,-14.106194,32.524359432253696
1193063.0636215333,-1.3711363,29.573952,-14.625454,33.02124401589978
1193064.2196846113,-1.9119335,29.77017,-15.194966,33.47843340538022
1193065.375747689,-2.4910173,29.94246,-15.728585,33.91377985631688
1193066.5318107668,-3.1658175,30.114748,-16.183237,34.333913370674466
1193067.6878738445,-3.7066147,30.358826,-16.628319,34.81232973241367
1193068.8439369223,-4.1421237,30.437792,-17.011183,35.11405299364992
1193070.0,-4.5728474,30.454542,-17.22894,35.28776608538788
1193070.9075584556,-5.1327877,30.686653,-17.480194,35.687159654325484
1193072.0636215333,-5.6879425,30.964231,-17.863058,36.19703209402715
1193073.2196846113,-6.200025,31.191557,-18.31532,36.6988349241127
1193074.375747689,-6.642713,31.430847,-18.724506,37.18374515943511
1193075.5318107668,-7.1236873,31.540922,-19.078657,37.54426499855756
1193076.6878738445,-7.599876,31.476313,-19.358627,37.726288375805986
1193077.8439369223,-7.992313,31.42367,-19.65056,37.91396328099278
1193079.0,-8.300998,31.371025,-19.932924,38.08371353395576
1193079.9075584556,-8.600112,31.277702,-20.26554,38.24851213191107
1193081.0636215333,-8.844189,31.083876,-20.590975,38.31990706802043
1193082.2196846113,-9.038013,30.894836,-20.856586,38.35588286078762
1193083.375747689,-9.28209,30.729725,-21.019304,38.370357491013046
1193084.5318107668,-9.485488,30.504793,-21.1557,38.31553889821978
1193085.6878738445,-9.679314,30.251144,-21.237059,38.207767636814545
1193086.8439369223,-9.7176,29.887423,-21.292097,37.96107477401473
1193088.0,-9.813316,29.621809,-21.275347,37.76762011722139
1193088.9075584556,-9.897068,29.43277,-21.356705,37.687514554909946
1193090.0636215333,-9.937747,29.13605,-21.416527,37.501144699598676
1193091.2196846113,-9.775029,28.887186,-21.540958,37.33675907878456
1193092.375747689,-9.605133,28.748398,-21.66539,37.257456855858976
1193093.5318107668,-9.461558,28.635931,-21.787428,37.2052367668761
1193094.6878738445,-9.203125,28.545,-21.897503,37.13509354237086
1193095.8439369223,-8.892047,28.372711,-21.84725,36.896904502982764
1193097.0,-8.5642185,28.193243,-21.622318,36.5476322771519
1193098.9075584556,-8.143066,28.03531,-21.404562,36.2000470315758
1193100.0636215333,-7.7386646,27.824736,-21.1557,35.80037019013895
1193101.2196846113,-7.3534064,27.592623,-20.87573,35.3726099226024
1193102.375747689,-6.987292,27.250437,-20.581402,34.85688847946467
1193103.5318107668,-6.7575727,27.149935,-20.354076,34.59873074425977
1193104.6878738445,-6.487174,27.10447,-20.339718,34.502751322274285
1193105.8439369223,-6.0755935,26.884323,-20.279896,34.219202815325595
1193107.0,-5.697514,26.645031,-20.057356,33.83366478053912
1193107.9075584556,-5.3744717,26.587603,-19.868317,33.62343825000946
1193109.0636215333,-5.1088586,26.537352,-19.68167,33.432014916178744
1193110.2196846113,-4.6972785,26.329168,-19.521345,33.111514968177026
1193111.375747689,-4.276127,26.09945,-19.248552,32.71044644328985
1193112.5318107668,-3.8956544,25.888872,-18.999691,32.34807683204836
1193113.6878738445,-3.5510757,25.762049,-18.786722,32.081680610760024
1193114.8439369223,-3.2304258,25.644796,-18.53068,31.80373113320702
1193116.0,-2.9743848,25.551472,-18.272245,31.553123833390572
1193116.9075584556,-2.730308,25.544294,-18.01142,31.374779491650617
1193118.0636215333,-2.4790528,25.4749,-17.752985,31.14939340028009
1193119.2196846113,-2.234976,25.376791,-17.50173,30.907720591644363
1193120.375747689,-2.0435436,25.367218,-17.252867,30.74627195652042
1193121.5318107668,-1.8353605,25.372004,-17.01597,30.604744243039775
1193122.6878738445,-1.6487137,25.30261,-16.762321,30.395982217781825
1193123.8439369223,-1.4620669,25.19493,-16.487137,30.145444494678536
1193125.0,-1.2347406,25.142284,-16.271774,29.97381621003606
1193125.9075584556,-1.1031306,25.070498,-16.032484,29.778974298973367
1193127.0636215333,-1.0122001,24.991531,-15.7764435,29.57190119480134
1193128.2196846113,-0.86862564,24.934103,-15.515616,29.380237282508975
1193129.375747689,-0.7681235,24.90778,-15.245217,29.213081994489066
1193130.5318107668,-0.63172776,24.833601,-14.98439,29.011011052048076
1193131.6878738445,-0.49054617,24.788136,-14.764243,28.856111887474494
1193132.8439369223,-0.3254355,24.757027,-14.4890585,28.687089611178955
1193134.0,-0.21057591,24.687634,-14.223446,28.492631167492135
1193135.9075584556,-0.023929082,24.639774,-13.953047,28.316188937712827
1193137.0636215333,0.16989647,24.601488,-13.680256,28.14980427729824
1193138.2196846113,0.33022133,24.591917,-13.330891,27.974704336517245
1193139.375747689,0.5599405,24.556023,-13.062885,27.819970587031438
1193140.5318107668,0.78248096,24.515343,-12.756593,27.646789756282022
1193141.6878738445,0.94280577,24.448341,-12.464658,27.45865909743573
1193142.8439369223,1.1294526,24.417234,-12.170331,27.30556602665405
1193144.0,1.3208853,24.335875,-11.876003,27.1112337832012
1193144.9075584556,1.4812101,24.249731,-11.564925,26.90707949942409
1193146.0636215333,1.6798215,24.14923,-11.304098,26.71684377800578
1193147.2196846113,1.9095407,24.077442,-11.024128,26.54997094365085
1193148.375747689,2.1296883,23.962582,-10.725014,26.33945393629255
1193149.5318107668,2.2852273,23.8549,-10.421115,26.131937464832
1193150.6878738445,2.5580187,23.706541,-10.0837145,25.88870108699432
1193151.8439369223,2.759023,23.594074,-9.789387,25.69289072229464
1193153.0,2.995921,23.488787,-9.521381,25.521664395504672
1193154.9075584556,3.1825678,23.357176,-9.272519,25.331127434481353
1193156.0636215333,3.383572,23.163351,-8.963834,25.06670518851532
1193157.2196846113,3.6659353,22.979097,-8.578575,24.800603411808755
1193158.375747689,3.8454032,22.811592,-8.267497,24.566386832215343
1193159.5318107668,4.051193,22.67759,-7.946848,24.368784254994196
1193160.6878738445,4.2521977,22.47898,-7.647734,24.1220555188616
1193161.8439369223,4.42688,22.328226,-7.4371586,23.94698876441525
1193163.0,4.5848117,22.172686,-7.1715455,23.75035931596874
1193163.9075584556,4.7499228,21.983646,-6.932255,23.535050827315008
1193165.0636215333,4.9078546,21.789822,-6.6474986,23.303918494610024
1193166.2196846113,5.1016803,21.60796,-6.3483853,23.091839969180977
1193167.375747689,5.209361,21.406956,-6.11388,22.864267665260066
1193168.5318107668,5.4007936,21.27056,-5.8937325,22.723146283139517
1193169.6878738445,5.573083,21.136557,-5.6400843,22.574849874367814
1193170.8439369223,5.7023,21.019304,-5.333792,22.422682779580146
1193172.0,5.841089,20.894873,-5.0657864,22.279502468468074
1193172.9075584556,5.89134,20.780014,-4.7762446,22.12079070274897
1193174.0636215333,6.0014133,20.643618,-4.524989,21.96932978443953
1193175.2196846113,6.0875583,20.559866,-4.2833056,21.865798930220826
1193176.375747689,6.144988,20.461758,-4.0488005,21.744820152383607
1193177.5318107668,6.2335258,20.34929,-3.8645465,21.63065341255386
1193178.6878738445,6.2933483,20.227253,-3.644399,21.4948747570746
1193179.8439369223,6.389065,20.136322,-3.460145,21.40710673311398
1193181.0,6.403422,20.078892,-3.2328188,21.32174558171496
1193181.9075584556,6.456066,19.959246,-3.0007067,21.190953961166944
1193183.0636215333,6.4656377,19.868317,-2.7566302,21.074949616540067
1193184.2196846113,6.477602,19.813278,-2.5221252,20.997295737788786
1193185.375747689,6.50871,19.777386,-2.2971919,20.94720490859154
1193186.5318107668,6.568533,19.8061,-2.0483294,20.967185703212373
1193187.6878738445,6.6474986,19.779778,-1.8951832,20.952817823095973
1193188.8439369223,6.690571,19.784565,-1.6870002,20.953250874746526
1193190.0,6.8102164,19.78935,-1.4740313,20.980233294954292
1193190.9075584556,6.92029,19.808493,-1.2490981,21.01968255418175
1193192.0636215333,7.006435,19.861137,-1.0385221,21.08633259943944
1193193.2196846113,7.085401,19.832422,-0.84230363,21.076938703758575
1193194.375747689,7.135652,19.889853,-0.64369226,21.140911086145195
1193195.5318107668,7.2529044,19.959246,-0.3852582,21.239692723877212
1193196.6878738445,7.2959766,19.983175,-0.1196454,21.27376019066948
1193197.8439369223,7.3581924,20.00232,0.09571633,21.313023304863307
1193199.0,7.5017667,20.031034,0.4115802,21.393649174262364
1193199.9075584556,7.6333766,20.083677,0.64369226,21.49504268158918
1193201.0636215333,7.7219143,20.181787,0.86862564,21.626072169314032
1193202.2196846113,7.764987,20.248789,1.1246668,21.715739786793176
1193203.375747689,7.9444547,20.370827,1.3639576,21.907654677734875
1193204.5318107668,8.107173,20.49765,1.6008555,22.100738628070992
1193205.6878738445,8.293819,20.610117,1.7994668,22.28906541609029
1193206.8439369223,8.468502,20.763264,2.0435436,22.516765498241547
1193208.0,8.664721,20.935553,2.2947989,22.773688138180237
1193208.9075584556,8.832224,21.059984,2.5675905,22.980940534323704
1193210.0636215333,9.023657,21.229881,2.8403819,23.24224606757397
1193211.2196846113,9.195946,21.347134,3.1131735,23.451170591038185
1193212.375747689,9.346699,21.528994,3.4051082,23.716094254795504
1193213.5318107668,9.523774,21.686926,3.6324344,23.962879839511263
1193214.6878738445,9.69367,21.818537,3.804724,24.176263557577396
1193215.8439369223,9.839638,21.914253,4.0153,24.35519646007917
1193217.0,10.07175,21.96929,4.225876,24.534626125824214
1193218.9075584556,10.208146,22.009968,4.4986672,24.675553543835566
1193220.0636215333,10.191396,22.237295,4.7451367,24.9174269066356
1193221.2196846113,10.315826,22.371298,4.9844275,25.134354134726365
1193222.375747689,10.490509,22.483765,5.1878247,25.347267954796152
1193223.5318107668,10.658012,22.584267,5.367293,25.543104154884585
1193224.6878738445,10.751336,22.581873,5.5252247,25.613674511059816
1193225.8439369223,10.84466,22.54598,5.7501583,25.670843093888813
1193227.0,10.997806,22.52205,5.9559484,25.761750607433466
1193227.9075584556,11.115058,22.54598,6.101916,25.86695009804635
1193229.0636215333,11.162916,22.60341,6.2813835,25.980389064161997
1193230.2196846113,11.194024,22.739805,6.5039244,26.166886275434383
1193231.375747689,11.306491,22.854666,6.618784,26.343515299657582
1193232.5318107668,11.397421,22.98149,6.7910733,26.536178410564585
1193233.6878738445,11.538603,23.086777,6.953791,26.730017596534033
1193234.8439369223,11.674998,23.213602,7.207439,26.9652382346815
1193236.0,11.801823,23.383497,7.343835,27.20299377972143
1193237.9075584556,11.990863,23.491179,7.549625,27.43379528857491
1193239.0636215333,12.151187,23.637146,7.70995,27.67326047896751
1193240.2196846113,12.299547,23.752007,7.887025,27.886230585790596
1193241.375747689,12.462265,23.941046,8.119137,28.185140023230502
1193242.5318107668,12.613019,24.115728,8.32732,28.460513762874083
1193243.6878738445,12.854702,24.235373,8.468502,28.7108375719333
1193244.8439369223,12.986312,24.412449,8.628826,28.966680922694973
1193246.0,13.22321,24.634989,8.734115,29.291990894567853
1193246.9075584556,13.347641,24.867102,8.856153,29.57978580217737
1193248.0636215333,13.496001,25.173393,9.093051,29.975412167525754
1193249.2196846113,13.754436,25.405506,9.270126,30.34072314316203
1193250.375747689,14.065514,25.644796,9.4495945,30.73742152784196
1193251.5318107668,14.381377,25.88648,9.624276,31.13776709609578
1193252.6878738445,14.611096,26.087484,9.794173,31.463737421441223
1193253.8439369223,14.8910675,26.36506,10.045428,31.902521903390966
1193255.0,15.094464,26.63546,10.220111,32.276016509340444
1193255.9075584556,15.317005,26.8915,10.361292,32.63617297308753
1193257.0636215333,15.563475,27.197794,10.504867,33.0498711529977
1193258.2196846113,15.6256895,27.583052,10.686728,33.4543432954691
1193259.375747689,15.809944,27.822342,10.784837,33.76906502651012
1193260.5318107668,16.40817,27.987453,11.155738,34.30708466921596
1193261.6878738445,16.862823,28.276995,11.459637,34.86067305619791
1193262.8439369223,17.169115,28.674217,11.569711,35.3673216835801
1193264.0,17.556767,29.045118,11.718071,35.90504330992032
1193264.9075584556,17.922882,29.475842,11.880789,36.48572471607778
1193266.0636215333,18.171743,29.947245,12.093758,37.058180059342334
1193267.2196846113,18.521109,30.349253,12.25169,37.606017392220494
1193268.375747689,18.906366,30.796726,12.505338,38.23967162698022
1193269.5318107668,19.425629,31.210701,12.689591,38.89072689863643
1193270.6878738445,19.69124,31.713211,12.8092375,39.46579848425124
1193271.8439369223,20.095642,32.069756,13.062885,40.03677112124459
1193273.0,20.543116,32.553123,13.345248,40.74090176007508
1193274.9075584556,21.186808,32.95513,13.637183,41.48366168410465
1193276.0636215333,21.734785,33.30928,14.051156,42.18227113433985
1193277.2196846113,22.160723,33.77829,14.335913,42.86710767885323
1193278.375747689,22.517265,34.261658,14.501023,43.48756259019029
1193279.5318107668,22.928844,34.723488,14.673312,44.12208733856348
1193280.6878738445,23.326069,35.063282,15.063356,44.72632260299321
1193281.8439369223,23.63954,35.48204,15.324183,45.30599958714838
1193283.0,23.881224,35.879265,15.628083,45.84617208593635
1193283.9075584556,23.79747,36.283665,15.819515,46.1852896393251
1193285.0636215333,23.701756,36.728745,15.994198,46.54662518831806
1193286.2196846113,23.828579,37.090076,16.463207,47.05860282211815
1193287.375747689,24.228195,37.465763,16.774286,47.66618823589726
1193288.5318107668,24.67806,37.707447,17.102114,48.20104260169489
1193289.6878738445,24.962818,38.035275,17.408407,48.71218596105494
1193290.8439369223,25.283466,38.2291,17.726664,49.14216475036537
1193292.0,25.742905,38.482746,17.982704,49.66886892905008
1193292.9075584556,26.178415,38.77229,18.272245,50.2242453511882
1193294.0636215333,26.66896,38.973293,18.667076,50.78002285481195
1193295.2196846113,26.958502,39.047474,19.17198,51.17646796121319
1193296.375747689,27.099684,39.715096,19.289232,51.804982331228494
1193297.5318107668,27.592623,40.27025,19.150444,52.438396089885934
1193298.6878738445,27.834307,40.712936,19.688848,53.10313116453162
1193299.8439369223,27.949167,41.06948,20.380398,53.695611981824854
1193301.0,28.566536,41.260914,20.715405,54.29215419808572
1193301.9075584556,28.992474,41.61267,21.1557,54.95217462175247
1193303.0636215333,29.24373,41.796925,21.737177,55.44982910431604
1193304.2196846113,29.75342,42.16304,22.036291,56.112263051624296
1193305.375747689,30.342075,42.6153,22.1344,56.803494370994684
1193306.5318107668,30.801514,42.79716,22.56991,57.35617670457033
1193307.6878738445,31.069519,43.156097,23.086777,57.97208803736932
1193308.8439369223,31.653389,43.488712,23.52468,58.70788427210322
1193310.0,32.332973,43.457603,23.816614,59.171069822585885
1193311.9075584556,32.81634,43.598785,24.130085,59.66596371951977
1193313.0636215333,33.512676,43.81654,24.591917,60.39661424274928
1193314.2196846113,33.99844,43.92183,24.960424,60.893709356897254
1193315.375747689,34.42198,44.118046,25.675903,61.56725334822015
1193316.5318107668,35.01782,44.3693,26.161665,62.284148991654575
1193317.6878738445,35.726116,44.563126,26.403347,62.9234796887437
1193318.8439369223,36.1712,44.823956,27.039862,63.629371189011295
1193320.0,36.877106,44.99385,27.403584,64.30648412720751
1193320.9075584556,37.30783,45.18289,27.841486,64.87307662466145
1193322.0636215333,37.89888,45.383896,28.635931,65.69657270839915
1193323.2196846113,38.150135,45.42218,29.006832,66.03032287628804
1193324.375747689,38.9039,45.68301,29.258087,66.75692093535822
1193325.5318107668,39.51888,45.69258,29.9281,67.41843155340237
1193326.6878738445,40.152996,45.5514,30.5359,67.96789182066792
1193327.8439369223,40.626793,45.65908,30.849371,68.46146059650562
1193329.0,41.08384,45.72608,31.469133,69.05840016307711
1193329.9075584556,41.804104,45.72608,31.945324,69.7062495682718
1193331.0636215333,42.416687,45.606434,32.605766,70.30119582694935
1193332.2196846113,43.057987,45.324074,33.29253,70.82834518927112
1193333.375747689,43.603573,45.237926,34.29755,71.58256396043876
1193334.5318107668,44.316658,45.077602,34.319088,71.92882718014462
1193335.6878738445,44.543983,44.83831,34.89817,72.19780283713133
1193336.8439369223,44.694736,44.721058,35.862514,72.68914888172274
1193338.0,45.036922,44.39084,36.42724,72.97818052786245
1193338.9075584556,45.326466,44.127617,37.099648,73.33565970161958
1193340.0636215333,45.326466,43.661,37.666767,73.34546187243929
1193341.2196846113,45.18289,43.211136,38.44207,73.3927010611239
1193342.375747689,44.689953,42.79716,39.21737,73.25838459128559
1193343.5318107668,43.675358,42.562656,39.786884,72.81560767192674
1193344.6878738445,42.636837,42.282684,40.157784,72.23830598373056
1193345.8439369223,41.856747,41.811283,40.667473,71.79146199746755
1193347.0,41.260914,41.217842,41.327915,71.47985787268736
1193347.9075584556,40.839764,40.57176,41.899822,71.20076626487233
1193349.0636215333,40.46647,39.930458,42.60812,71.04525712730629
1193350.2196846113,40.19607,39.327446,43.335564,70.99537421216901
1193351.375747689,39.971138,38.743576,43.99601,70.95354431036493
1193352.5318107668,39.5452,38.1956,44.421947,70.68264339758954
1193353.6878738445,39.210194,37.642838,44.78806,70.43005668587439
1193354.8439369223,38.75554,37.1499,45.295357,70.24084507221599
1193356.0,38.348743,36.580387,45.93905,70.13663178149004
1193357.9075584556,37.9252,36.05155,46.59949,70.06816338896432
1193359.0636215333,37.393974,35.429398,47.35326,69.97058501100787
1193360.2196846113,36.82207,34.8551,47.697838,69.6119715635834
1193361.375747689,36.15684,34.3478,47.934734,69.17244514455417
1193362.5318107668,35.51315,33.89076,48.09506,68.72337471853155
1193363.6878738445,34.721096,33.507893,48.2506,68.2382136423622
1193364.8439369223,33.823757,33.11067,48.353493,67.66404725365605
1193366.0,33.041275,32.72541,48.2506,67.01342189183988
1193366.9075584556,32.5603,32.347332,48.35589,66.669446685122
1193368.0636215333,32.112827,31.907036,48.17642,66.10794239918246
1193369.2196846113,31.710817,31.574423,47.657158,65.3737318135303
1193370.375747689,31.56485,31.260952,47.61169,65.1188137186551
1193371.5318107668,31.509813,30.875692,47.681087,64.95893109708166
1193372.6878738445,31.667746,30.586151,47.233612,64.57068121277537
1193373.8439369223,31.907036,30.540686,46.221413,63.93130271918805
1193375.0,32.06497,30.449755,46.420025,64.1105966409731
1193375.9075584556,32.012325,30.107569,46.975178,64.32668195334709
1193377.0636215333,31.880714,29.475842,46.163982,63.37443033949168
1193378.2196846113,31.777819,28.932652,44.36212,61.76508579322354
1193379.375747689,32.053005,28.226744,42.823483,60.48135996009721
1193380.5318107668,32.689518,27.27676,42.08886,59.86733967088836
1193381.6878738445,33.35714,26.271738,42.354473,59.97336400126287
1193382.8439369223,34.15637,25.403112,42.481297,60.13847608364925
1193384.0,34.577522,24.711561,42.17022,59.87147676118909
1193384.9075584556,34.869457,23.795078,41.615067,59.278145803621605
1193386.0636215333,34.804848,22.828342,41.055122,58.46395201495492
1193387.2196846113,34.57513,21.823322,40.57176,57.60004086049057
1193388.375747689,34.285587,20.667547,39.978317,56.57662772810224
1193389.5318107668,34.010403,19.39452,39.435127,55.569633431928786
1193390.6878738445,33.72086,18.076027,38.975685,54.61632697704556
1193391.8439369223,33.5055,16.75275,38.50907,53.72356684991606
1193393.0,33.165707,15.539545,38.063988,52.823373255416186
1193394.9075584556,32.79959,14.280875,37.61173,51.9075979845593
1193396.0636215333,32.340153,13.0916,37.23126,51.02393759610296
1193397.2196846113,32.043434,11.811395,36.70003,50.131655831014406
1193398.375747689,31.914215,10.514439,36.317165,49.477338450932976
1193399.5318107668,31.67014,9.155267,35.95105,48.778014284751166
1193400.6878738445,31.172413,7.8702745,35.778763,48.10177163845515
1193401.8439369223,30.394718,6.6546774,35.54665,47.240744488419054
1193403.0,30.145857,5.262005,35.54665,46.904431742714614
1193403.9075584556,29.669668,3.902833,35.56101,46.47694844625896
1193405.0636215333,28.973331,2.81406,35.352825,45.795142519701656
1193406.2196846113,28.159742,1.8951832,35.214035,45.12860567145135
1193407.375747689,27.353333,1.0959519,35.024994,44.45397779137474
1193408.5318107668,26.494278,0.3278284,35.09439,43.973519846303304
1193409.6878738445,25.690262,-0.3326142,35.04414,43.45333062233878
1193410.8439369223,24.745062,-0.8159817,34.96996,42.84719386284449
1193412.0,23.799864,-1.0839874,34.910137,42.264952625794145
1193412.9075584556,22.907309,-1.3232782,34.93167,41.793748812531476
1193414.0636215333,21.971682,-1.3687434,34.957993,41.3120992324551
1193415.2196846113,20.961874,-1.3137065,34.998672,40.817067853088155
1193416.375747689,19.774992,-1.196454,35.14464,40.343866095154794
1193417.5318107668,18.509144,-0.99784267,35.35761,39.92173200800422
1193418.6878738445,17.248081,-0.8877689,35.61126,39.57835608751289
1193419.8439369223,15.824301,-0.71787244,35.903194,39.24236463798211
1193421.0,14.398128,-0.45465255,36.14727,38.91192525818409
1193421.9075584556,12.756593,-0.15314612,36.381775,38.55369853661701
1193423.0636215333,11.1007,0.24886245,36.762245,38.40247557709066
1193424.2196846113,9.468738,0.6460852,37.16186,38.354638103597104
1193425.375747689,7.741058,1.1485959,37.494476,38.302467048682864
1193426.5318107668,6.0612364,1.5984626,37.836662,38.352400976764514
1193427.6878738445,4.453202,2.1416528,38.217136,38.53527174954198
1193428.8439369223,2.8762755,2.7805593,38.540176,38.747253281796546
1193430.0,1.4405307,3.4218585,39.004402,39.18070468571575
1193431.9075584556,-0.011964541,3.9674416,39.564342,39.76277019892623
1193433.0636215333,-1.2586696,4.5202036,40.05728,40.33115632790383
1193434.2196846113,-2.3737648,4.8312817,40.51672,40.87273714530107
1193435.375747689,-3.6324344,5.254826,40.990517,41.4853017331183
1193436.5318107668,-4.637456,5.6376915,41.354237,41.99360048213629
1193437.6878738445,-5.568297,5.7381935,41.868713,42.62536714680614
1193438.8439369223,-6.190453,5.7812657,42.24201,43.082852160451324
1193440.0,-6.927469,5.7956233,42.65837,43.60407787395995
1193440.9075584556,-7.418015,5.814767,42.947914,43.97000999267466
1193442.0636215333,-7.7147355,5.541975,43.325993,44.35507073798478
1193443.2196846113,-7.839167,5.056215,43.754326,44.73766749724878
1193444.375747689,-7.8200235,4.6207056,43.902683,44.83245768838591
1193445.5318107668,-7.7960944,4.1612673,44.127617,45.003797790124885
1193446.6878738445,-7.5687685,3.6396132,44.32862,45.11717624094627
1193447.8439369223,-7.1284733,3.1323166,44.51527,45.191103129314605
1193449.0,-6.544604,2.4407663,44.694736,45.237248012646916
1193449.9075584556,-5.8171597,1.742037,44.83592,45.245262316966105
1193451.0636215333,-5.0131426,0.9547703,44.948387,45.23716037679051
1193452.2196846113,-3.9124048,0.07896597,45.03453,45.20422590051046
1193453.375747689,-2.7135577,-0.77530223,45.005814,45.09421008002766
1193454.5318107668,-1.6056414,-1.6295704,45.063244,45.12127595489168
1193455.6878738445,-0.46183127,-2.445552,45.127853,45.19642827808701
1193456.8439369223,0.6748001,-3.2232473,45.168533,45.28842072433091
1193458.0,1.8377534,-4.0607653,45.180496,45.399827876181554
1193458.9075584556,2.9504557,-4.812138,45.14939,45.50087118221811
1193460.0636215333,4.115802,-5.6951213,45.11589,45.65980467782377
1193461.2196846113,5.156717,-6.4225655,45.070423,45.816853964658115
1193462.375747689,6.1282377,-7.291191,44.92685,45.925359164939394
1193463.5318107668,7.1763315,-8.1526375,44.826347,46.1233847128407
1193464.6878738445,8.214853,-9.033228,44.807205,46.441023221109354
1193465.8439369223,9.215089,-9.88271,44.768917,46.763679833551485
1193467.0,10.11243,-10.715443,44.759346,47.121980152990865
1193468.9075584556,11.021734,-11.490745,44.654057,47.4078120944326
1193470.0636215333,11.584068,-12.2157955,44.6062,47.67734650299285
1193471.2196846113,12.278011,-12.924097,44.45545,47.89643903343995
1193472.375747689,12.780522,-13.773579,44.610985,48.40654091888771
1193473.5318107668,13.199281,-14.55606,44.596626,48.73355058093384
1193474.6878738445,13.718542,-15.39597,44.649273,49.18121456689732
1193475.8439369223,14.182766,-16.10188,44.577484,49.47295696353122
1193477.0,14.529737,-16.726427,44.620556,49.81847684569083
1193477.9075584556,14.821672,-17.358156,44.697132,50.18785858772363
1193479.0636215333,15.096857,-17.882202,44.747383,50.497688313386604
1193480.2196846113,15.290683,-18.262674,44.630127,50.58832359619059
1193481.375747689,15.570653,-18.607254,44.599022,50.771526465366485
1193482.5318107668,15.728585,-18.743649,44.567913,50.84300967795863
1193483.6878738445,15.788407,-18.762793,44.58227,50.881185079667695
1193484.8439369223,15.697477,-18.657505,44.591843,50.82268921581386
1193486.0,15.680727,-18.480429,44.50809,50.6792021515796
1193487.9075584556,15.608939,-18.221994,44.44109,50.504361419879935
1193489.0636215333,15.537152,-17.848701,44.3693,50.28532591272035
1193490.2196846113,15.443829,-17.451479,44.290337,50.046977181866346
1193491.375747689,15.295468,-16.927431,44.218548,49.75710249629784
1193492.5318107668,15.147108,-16.379456,44.055832,49.38256567688463
1193493.6878738445,14.96764,-15.747728,43.8979,48.98006542198146
1193494.8439369223,14.68767,-15.044213,43.74475,48.53513312416862
1193496.0,14.419664,-14.261732,43.531784,48.02436806180146
1193496.9075584556,14.072693,-13.462501,43.426495,47.59348788891475
1193498.0636215333,13.797508,-12.691984,43.33078,47.21243671189531
1193499.2196846113,13.448143,-11.969326,43.220707,46.82036766859668
1193500.375747689,13.144244,-11.311276,43.046024,46.40771807887443
1193501.5318107668,12.780522,-10.710656,42.816303,45.9488378213272
1193502.6878738445,12.500552,-10.165073,42.588978,45.534751086225526
1193503.8439369223,12.19426,-9.688885,42.29226,45.06894413449715
1193505.0,11.978898,-9.210303,42.10561,44.734841813940875
1193505.9075584556,11.734821,-8.868117,41.777782,44.2914505504985
1193507.0636215333,11.55296,-8.470895,41.52892,43.930378364282554
1193508.2196846113,11.383064,-8.099994,41.217842,43.52119653645906
1193509.375747689,11.155738,-7.7123427,40.901978,43.09179184670059
1193510.5318107668,11.071986,-7.336656,40.578934,42.697368535108666
1193511.6878738445,10.985841,-6.872432,40.17932,42.217256894951205
1193512.8439369223,10.851838,-6.45128,39.829956,41.78285290138265
1193514.0,10.806373,-6.0277357,39.401623,41.29890059212609
1193514.9075584556,10.756122,-5.6352987,39.03551,40.880579654368965
1193516.0636215333,10.753729,-5.2141466,38.623928,40.43065453737939
1193517.2196846113,10.768086,-4.790602,38.18124,39.95883671434142
1193518.375747689,10.792015,-4.400558,37.83427,39.58869137650913
1193519.5318107668,10.84466,-4.0153,37.35808,39.106974133675955
1193520.6878738445,10.957127,-3.5989337,36.915394,38.67502126756184
1193521.8439369223,11.019341,-3.1873536,36.46792,38.229495002839286
1193523.0,11.148559,-2.833203,36.068302,37.858153892905214
1193523.9075584556,11.277776,-2.3785505,35.599293,37.418650377680315
1193525.0636215333,11.430922,-2.0124357,35.099174,36.96847157645274
1193526.2196846113,11.588854,-1.6750357,34.673237,36.59700323370425
1193527.375747689,11.765929,-1.3184924,34.194656,36.18632347172389
1193528.5318107668,11.93104,-1.0313433,33.775898,35.83608056401339
1193529.6878738445,12.060257,-0.677193,33.328423,35.44985428647383
1193530.8439369223,12.151187,-0.36850783,32.924023,35.09670118450264
1193532.0,12.239725,-0.1483603,32.517227,34.744825954719786
1193532.9075584556,12.275619,0.057429794,32.120007,34.385883290886234
1193534.0636215333,12.304334,0.25604117,31.708426,34.01303384971366
1193535.2196846113,12.380906,0.44747382,31.299238,33.66198695236312
1193536.375747689,12.431157,0.6006199,30.947481,33.35627360584941
1193537.5318107668,12.498159,0.7968384,30.607687,33.07067331208974
1193538.6878738445,12.550803,0.9404129,30.282251,32.79362373990249
1193539.8439369223,12.596269,1.1342385,29.8946,32.45981513895671
1193541.0,12.699163,1.3663505,29.64813,32.28230578949278
1193541.9075584556,12.785308,1.5506045,29.423199,32.118423285769886
1193543.0636215333,12.890595,1.7276796,29.12887,31.90052325168321
1193544.2196846113,12.993491,1.9861137,28.908722,31.756726274439764
1193545.375747689,13.144244,2.2421548,28.65986,31.609903253542218
1193546.5318107668,13.213638,2.4862316,28.454071,31.4708711864944
1193547.6878738445,13.395499,2.7662017,28.28178,31.415765871175
1193548.8439369223,13.5534315,2.9743848,28.095135,31.33494983292439
1193550.0,13.716149,3.1897464,27.901308,31.253643205190944
1193551.9075584556,13.921939,3.4457877,27.693125,31.186583824760564
1193553.0636215333,14.230624,3.6850784,27.50648,31.188089140470318
1193554.2196846113,14.608704,3.8956544,27.317438,31.22231212847151
1193555.375747689,15.063356,4.1253734,27.279152,31.4336687885978
1193556.5318107668,15.4749365,4.2833056,27.159508,31.55089921609347
1193557.6878738445,15.8769455,4.4962745,27.082933,31.71402123149648
1193558.8439369223,16.307669,4.630277,27.054218,31.92663848421587
1193560.0,16.657034,4.836067,27.054218,32.13681747306614
1193560.9075584556,17.01597,5.025107,27.015932,32.321131125487746
1193562.0636215333,17.27201,5.2021823,26.98004,32.4547005613075
1193563.2196846113,17.566338,5.498903,27.006361,32.68268194925217
1193564.375747689,17.767344,5.7381935,26.951324,32.786876075813545
1193565.5318107668,17.977919,5.9942346,27.049433,33.02738629731222
1193566.6878738445,18.193281,6.24549,27.056612,33.19731723804809
1193567.8439369223,18.379927,6.539818,27.054218,33.35448466983079
1193569.0,18.647932,6.795859,27.049433,33.54997605134755
1193570.9075584556,18.87526,7.0279713,27.015932,33.6976023255342
1193572.0636215333,19.152836,7.367764,27.054218,33.956527867173286
1193573.2196846113,19.36102,7.6764493,27.070969,34.15573644199217
1193574.375747689,19.61706,7.977956,27.126007,34.413617664314
1193575.5318107668,19.813278,8.329713,27.142757,34.62194912665522
1193576.6878738445,20.054962,8.710185,27.12122,34.837184126218766
1193577.8439369223,20.23443,9.071514,27.233686,35.11976903146847
1193579.0,20.468935,9.504631,27.274366,35.40065467166309
1193579.9075584556,20.660368,9.925783,27.370083,35.70004786390912
1193581.0636215333,20.847015,10.349327,27.422728,35.9682167298455
1193582.2196846113,20.992983,10.734586,27.439478,36.17819266826591
1193583.375747689,21.208344,11.182059,27.44187,36.4402048265198
1193584.5318107668,21.521816,11.576889,27.463406,36.76209449932107
1193585.6878738445,21.746748,12.017184,27.51605,37.07380163225589
1193586.8439369223,22.031506,12.333048,27.535192,37.35877578394672
1193588.0,22.311476,12.732664,27.566301,37.6805472977513
1193588.9075584556,22.622553,13.062885,27.609373,38.00916134584086
1193590.0636215333,22.873808,13.419429,27.709875,38.355303930780295
1193591.2196846113,23.060455,13.816651,27.757734,38.641638506636625
1193592.375747689,23.321281,14.206696,27.781664,38.95552866187639
1193593.5318107668,23.53425,14.582382,27.860628,39.27749203310731
1193594.6878738445,23.811829,14.974819,27.894129,39.61478053803458
1193595.8439369223,24.017618,15.348112,27.997025,39.953021477844366
1193597.0,24.244946,15.747728,27.982668,40.23478659199181
1193597.9075584556,24.443556,16.121021,27.999418,40.513481167955696
1193599.0636215333,24.66131,16.534994,28.073597,40.86212287699386
1193600.2196846113,24.89103,16.913074,28.052061,41.14041289216841
1193601.375747689,25.058533,17.322262,28.121456,41.45849882073239
1193602.5318107668,25.23561,17.72427,28.178886,41.7736205673628
1193603.6878738445,25.403112,18.040134,28.262638,42.065915427356906
1193604.8439369223,25.49165,18.391891,28.332031,42.31772506720254
1193606.0,25.594545,18.765184,28.456463,42.626085332590065
1193607.9075584556,25.551472,19.136086,28.475607,42.77765424593346
1193609.0636215333,25.57301,19.552452,28.530643,43.0148208140619
1193610.2196846113,25.506008,19.942495,28.58568,43.19028423133482
1193611.375747689,25.510794,20.325361,28.600037,43.38067572885566
1193612.5318107668,25.486864,20.732155,28.664646,43.601197435435616
1193613.6878738445,25.482079,21.153307,28.707718,43.82843620260725
1193614.8439369223,25.470114,21.545744,28.772327,44.05442761722664
1193616.0,25.553865,21.947754,28.83215,44.33956242121973
1193616.9075584556,25.59933,22.392834,28.85847,44.60466345284264
1193618.0636215333,25.649582,22.830736,28.89915,44.881003039135834
1193619.2196846113,25.745298,23.266245,28.925472,45.17545191729257
1193620.375747689,25.948696,23.665861,28.932652,45.50281477804248
1193621.5318107668,26.13295,24.082228,28.970938,45.849754958410934
1193622.6878738445,26.269344,24.472271,29.045118,46.179967103947796
1193623.8439369223,26.467957,24.833601,29.140835,46.54512596264269
1193625.0,26.606745,25.223644,29.16955,46.85097377148377
1193625.9075584556,26.774248,25.666332,29.164764,47.18267069036496
1193627.0636215333,26.965681,26.044413,29.265266,47.55959623839426
1193628.2196846113,27.092505,26.42967,29.337053,47.88730481253601
1193629.375747689,27.21933,26.764677,29.36816,48.163561769753166
1193630.5318107668,27.331797,27.135578,29.40884,48.45871016431301
1193631.6878738445,27.477764,27.530407,29.356197,48.73127462244502
1193632.8439369223,27.544765,27.975489,29.315517,48.99736320121354
1193634.0,27.76252,28.375105,29.308338,49.344531377181696
1193634.9075584556,27.994633,28.813005,29.286802,49.7152441945317
1193636.0636215333,28.102312,29.279623,29.200657,49.99714623855168
1193637.2196846113,28.229137,29.684025,29.119299,50.25892050389458
1193638.375747689,28.454071,30.03339,29.078619,50.568812071397346
1193639.5318107668,28.813005,30.34686,28.8489,50.82696331869163
1193640.6878738445,29.179121,30.598116,28.772327,51.14208253558928
1193641.8439369223,29.468662,30.918766,28.645502,51.428950172689746
1193643.0,29.652918,31.162842,28.571323,51.64047603771694
1193644.9075584556,29.734276,31.45717,28.375105,51.75738881951157
1193646.0636215333,29.8946,31.883108,28.209993,52.01945203440453
1193647.2196846113,30.093212,32.187008,28.142992,52.284155259323754
1193648.375747689,30.100391,32.505264,28.037704,52.428413781595495
1193649.5318107668,30.155428,32.785233,27.97788,52.60212077494474
1193650.6878738445,30.23918,33.091526,27.886951,52.79336261460789
1193651.8439369223,30.28943,33.354748,27.760126,52.92082179449106
1193653.0,30.246359,33.589252,27.611767,52.96687417186967
1193653.9075584556,30.31336,33.85965,27.391619,53.062948316629196
1193655.0636215333,30.337288,33.979294,27.288723,53.10007407625821
1193656.2196846113,30.25593,34.220978,27.126007,53.125482503271755
1193657.375747689,30.27268,34.56795,26.965681,53.27782159002619
1193658.5318107668,30.437792,34.78092,26.872358,53.463026498336475
1193659.6878738445,30.523935,34.96996,26.731176,53.56458233412076
1193660.8439369223,30.497614,35.20925,26.525387,53.60402877354709
1193662.0,30.48565,35.47247,26.41292,53.71511264765066
1193662.9075584556,30.5024,35.733295,26.173628,53.780327072261365
1193664.0636215333,30.629223,35.790726,26.077913,53.84406109893991
1193665.2196846113,30.521544,36.23102,25.838621,53.96189204953785
1193666.375747689,30.38754,36.59235,25.561045,53.997867432576676
1193667.5318107668,30.38754,36.82207,25.398327,54.077189652712434
1193668.6878738445,30.282251,36.977608,25.202108,54.03243902205719
1193669.8439369223,30.28943,37.12836,24.979568,54.03650158440241
1193671.0,30.212858,37.27194,24.757027,53.99004246868577
1193671.9075584556,30.035782,37.38919,24.500986,53.855343691966354
1193673.0636215333,29.947245,37.504047,24.297588,53.793715312162426
1193674.2196846113,29.873064,37.527977,24.122906,53.690442392901375
1193675.375747689,29.789312,37.63566,23.857294,53.600526957030745
1193676.5318107668,29.741455,37.6548,23.584501,53.46650162462498
1193677.6878738445,29.684025,37.6548,23.405033,53.35560769939477
1193678.8439369223,29.516521,37.77684,23.268639,53.2892504473591
1193680.0,29.313124,37.90845,23.062849,53.18086896656238
1193680.9075584556,29.126478,37.93238,22.857058,53.00624749559478
1193682.0636215333,29.004438,37.937164,22.665625,52.8603480190905
1193683.2196846113,28.884794,37.944344,22.46462,52.713980287559124
1193684.375747689,28.805828,38.004166,22.268402,52.63054329716485
1193685.5318107668,28.68379,37.973057,22.1344,52.48470758277452
1193686.6878738445,28.5115,38.054417,21.919039,52.359226084267235
1193687.8439369223,28.332031,38.032883,21.718035,52.162028470314254
1193689.0,28.131027,38.047237,21.548138,51.992972358540364
1193690.9075584556,28.01856,37.951523,21.347134,51.778933288617345
1193692.0636215333,27.807985,37.896484,21.210737,51.56862314824442
1193693.2196846113,27.650053,37.76727,21.062378,51.32753531166866
1193694.375747689,27.446655,37.71702,20.878122,51.105659633902675
1193695.5318107668,27.248045,37.616516,20.665154,50.838045026771006
1193696.6878738445,27.051826,37.535156,20.526365,50.61640925620699
1193697.8439369223,26.869965,37.489693,20.387577,50.42941003290048
1193699.0,26.666567,37.437046,20.255966,50.22889972281656
1193699.9075584556,26.539743,37.449013,20.090857,50.104182142558386
1193701.0636215333,26.38899,37.374832,19.923353,49.901872259574915
1193702.2196846113,26.288488,37.33176,19.76542,49.75356001132124
1193703.375747689,26.154486,37.293472,19.669704,49.61610068502558
1193704.5318107668,26.032448,37.20015,19.530916,49.4266748698945
1193705.6878738445,25.900837,37.21929,19.344269,49.29837369071144
1193706.8439369223,25.752478,37.16904,19.238981,49.14128658857484
1193708.0,25.666332,37.06854,19.109764,48.96958582836412
1193708.9075584556,25.5084,36.963253,18.935081,48.739079139624394
1193710.0636215333,25.352861,36.946503,18.887224,48.626524400171824
1193711.2196846113,25.249966,36.860355,18.724506,48.44433587811084
1193712.375747689,25.115963,36.745495,18.619217,48.24643242671403
1193713.5318107668,24.934103,36.70721,18.55461,48.097841018603
1193714.6878738445,24.771385,36.63064,18.444536,47.91269361957352
1193715.8439369223,24.601488,36.546886,18.372747,47.73327896171757
1193717.0,24.417234,36.403313,18.312925,47.505428486040934
1193717.9075584556,24.252123,36.333916,18.114315,47.29109144248428
1193719.0636215333,24.063084,36.199913,17.992275,47.04452861358322
1193720.2196846113,23.943438,36.11616,17.863058,46.86954317589204
1193721.375747689,23.759184,35.98455,17.721878,46.62029196492917
1193722.5318107668,23.59886,35.86012,17.638126,46.41075186318226
1193723.6878738445,23.464857,35.824226,17.52566,46.27227507876747
1193724.8439369223,23.32846,35.766796,17.406013,46.11344739480431
1193726.0,23.20403,35.699795,17.276796,45.94986454069849
1193727.9075584556,23.101135,35.647152,17.152365,45.81032098875267
1193729.0636215333,23.026955,35.57297,16.97529,45.64906704169347
1193730.2196846113,22.921667,35.510757,16.84368,45.498639943566864
1193731.375747689,22.84988,35.410255,16.692926,45.32832396659842
1193732.5318107668,22.761341,35.362396,16.62114,45.21990700873562
1193733.6878738445,22.605803,35.257107,16.458422,44.99961753186734
1193734.8439369223,22.433514,35.13507,16.389027,44.79214105509833
1193736.0,22.297117,35.00585,16.307669,44.592723946264485
1193736.9075584556,22.069792,34.883816,16.255024,44.364198887004555
1193738.0636215333,21.84725,34.699562,16.149736,44.07012489685093
1193739.2196846113,21.588818,34.522484,16.07077,43.773834793861504
1193740.375747689,21.36867,34.390877,16.022913,43.544072149990726
1193741.5318107668,21.189201,34.182693,15.924804,43.255498172938275
1193742.6878738445,21.07434,34.01519,15.766871,43.008780246623374
1193743.8439369223,21.00734,33.936222,15.719013,42.89595397240925
1193745.0,21.02409,33.76154,15.611332,42.72666182038943
1193745.9075584556,21.050413,33.606003,15.52758,42.58625442279443
1193747.0636215333,21.071949,33.491142,15.470151,42.48539983436152
1193748.2196846113,21.093485,33.328423,15.381613,42.3357166892675
1193749.375747689,21.12938,33.223137,15.252397,42.22396411459704
1193750.5318107668,21.07434,33.06999,15.09925,42.02070198840328
1193751.6878738445,21.062378,32.907272,14.989177,41.847195182403766
1193752.8439369223,20.992983,32.73259,14.843209,41.62269377111566
1193754.0,20.890087,32.61773,14.713992,41.43444950517061
1193754.9075584556,20.7848,32.505264,14.587168,41.24785532618538
1193756.0636215333,20.681904,32.457405,14.426843,41.10180155839753
1193757.2196846113,20.61969,32.462193,14.211481,40.99916806812926
1193758.375747689,20.552687,32.41194,13.948261,40.83504355829304
1193759.5318107668,20.502436,32.447834,13.742471,40.768459897468446
1193760.6878738445,20.507223,32.421513,13.529502,40.67859541268481
1193761.8439369223,20.533545,32.37844,13.283032,40.576209608755335
1193763.0,20.535936,32.27076,13.105958,40.43380706131269
1193764.9075584556,20.507223,32.03386,12.773343,40.12321862795877
1193766.0636215333,20.378006,31.746712,12.512516,39.74518723062248
1193767.2196846113,20.23443,31.461956,12.19426,39.34446352053153
1193768.375747689,20.105213,31.146091,11.911897,38.93830844418205
1193769.5318107668,19.942495,30.779976,11.612783,38.47033608367219
1193770.6878738445,19.767815,30.49522,11.342384,38.07065310086079
1193771.8439369223,19.554846,30.203285,11.074379,37.64667710582943
1193773.0,19.408878,29.940065,10.765694,37.26945404382448
1193773.9075584556,19.284447,29.71274,10.488116,36.942352275306796
1193775.0636215333,19.11455,29.573952,10.167466,36.651903408444696
1193776.2196846113,19.018833,29.485413,9.8922825,36.45494262129985
1193777.375747689,18.939867,29.475842,9.588383,36.324659835177286
1193778.5318107668,18.91594,29.406448,9.296448,36.17977218663777
1193779.6878738445,18.90876,29.305946,8.932726,36.00240644017553
1193780.8439369223,18.899189,29.291588,8.595325,35.90342719400322
1193782.0,18.789114,29.332268,8.250747,35.797871123669196
1193782.9075584556,18.671862,29.35141,7.84156,35.65997423959732
1193784.0636215333,18.490002,29.36816,7.4323726,35.49097291158464
1193785.2196846113,18.265068,29.516521,7.011221,35.411790986886075
1193786.375747689,18.04492,29.880243,6.4153867,35.49091779675451
1193787.5318107668,17.721878,30.162607,5.884161,35.474937231195405
1193788.6878738445,17.410799,30.44497,5.278755,35.46684895038359
1193789.8439369223,17.15715,30.763226,4.6709566,35.53254431656505
1193791.0,16.881968,31.05516,4.0464077,35.57804409257545
1193791.9075584556,16.611568,31.39017,3.4505734,35.681836007082254
1193793.0636215333,16.247847,31.765856,2.761416,35.78669526336849
1193794.2196846113,15.862588,32.1224,2.08183,35.885990246426864
1193795.375747689,15.611332,32.325794,1.3615648,35.92387093910203
1193796.5318107668,15.300254,32.481335,0.6580497,35.91055451053926
1193797.6878738445,14.955675,32.670376,-0.13878867,35.93111388451409
1193798.8439369223,14.491451,32.78284,-0.9834852,35.85643587544111
1193800.0,14.089443,32.849842,-1.7372513,35.78606663988884
1193801.9075584556,13.589325,32.878555,-2.3043704,35.65079600491476
1193803.0636215333,13.053313,32.761303,-2.8188457,35.37849411173667
1193804.2196846113,12.47423,32.656017,-3.412287,35.1235756005501
1193805.375747689,11.809001,32.679947,-4.0224786,34.980162587218885
1193806.5318107668,11.177274,32.63448,-4.7523155,34.82133313865247
1193807.6878738445,10.59819,32.457405,-5.460616,34.57778329664267
1193808.8439369223,9.901854,32.23965,-5.963127,34.249096752731226
1193810.0,9.186374,32.170258,-6.58289,34.09764519444913
1193810.9075584556,8.360821,32.055397,-7.0710435,33.874052913705825
1193812.0636215333,7.552018,31.938145,-7.480231,33.660539771767034
1193813.2196846113,6.7264647,31.84482,-8.001884,33.516682946589476
1193814.375747689,5.939198,31.744318,-8.432608,33.37790700223715
1193815.5318107668,5.2524333,31.749105,-8.982977,33.4108904349241
1193816.6878738445,4.4340587,31.727568,-9.559668,33.43182166768502
1193817.8439369223,3.773616,31.610315,-10.078929,33.39216976929954
1193819.0,3.2926416,31.507421,-10.56469,33.394187242294
1193819.9075584556,2.7997024,31.315989,-11.261025,33.3967091885909
1193821.0636215333,2.395301,31.191557,-12.041114,33.52072674220901
1193822.2196846113,2.1033661,31.13652,-12.921703,33.77687722512604
1193823.375747689,1.7803236,31.280094,-13.615647,34.16137696285327
1193824.5318107668,1.3950654,31.59835,-14.065514,34.61561229094429
1193825.6878738445,0.8710185,31.921394,-14.268911,34.97621891023241
1193826.8439369223,0.45704544,32.143936,-14.402914,35.22620393680983
1193828.0,-0.033500712,32.359295,-14.48188,35.45207953744222
1193828.9075584556,-0.7202653,32.83788,-14.955675,36.09040536905078
1193830.0636215333,-1.1462029,33.182457,-15.577831,36.67503309213747
1193831.2196846113,-1.5242825,33.352352,-16.35792,37.17908508554387
1193832.375747689,-1.7755378,33.378674,-16.960932,37.482817754087385
1193833.5318107668,-2.2301903,33.531822,-17.45387,37.8681186935765
1193834.6878738445,-2.7398798,33.816578,-18.035349,38.42319224765601
1193835.8439369223,-3.2208543,33.92426,-18.482822,38.76653231916819
1193837.0,-3.6396132,33.95058,-18.836973,38.996412891248646
1193837.9075584556,-4.027264,33.95058,-19.100193,39.16220257211467
1193839.0636215333,-4.350307,33.90033,-19.282053,39.24226182316659
1193840.2196846113,-4.6159196,33.8094,-19.33709,39.22123521489046
1193841.375747689,-4.692493,33.567715,-19.447165,39.076888404957465
1193842.5318107668,-4.730779,33.32364,-19.538095,38.91763622094058
1193843.6878738445,-5.022714,33.32603,-19.686455,39.030865247310636
1193844.8439369223,-5.1208234,33.048454,-19.894638,38.91297682310039
1193846.0,-5.1184306,32.65841,-20.066927,38.671069738997986
1193847.9075584556,-5.2021823,32.22051,-20.344505,38.45936620691452
1193849.0636215333,-5.3529353,31.751497,-20.48808,38.16507435016202
1193850.2196846113,-5.460616,31.244202,-20.65319,37.8493427009289
1193851.375747689,-5.5611186,30.669903,-20.763264,37.45239808138287
1193852.5318107668,-5.616155,30.131498,-20.811121,37.04795710946381
1193853.6878738445,-5.6927285,29.652918,-20.7848,36.656658531969825
1193854.8439369223,-5.7405863,29.195871,-20.806335,36.30780619437938
1193856.0,-5.747765,28.748398,-20.820694,35.95842722788728
1193856.9075584556,-5.809981,28.320066,-20.811121,35.621408938184324
1193858.0636215333,-5.7358007,27.903702,-20.758478,35.24812624596389
1193859.2196846113,-5.678371,27.623732,-20.732155,35.001953056443725
1193860.375747689,-5.57069,27.374868,-20.748905,34.79846323894992
1193861.5318107668,-5.4701877,27.092505,-20.72737,34.547802357967086
1193862.6878738445,-5.21654,26.91543,-20.646011,34.320699757851976
1193863.8439369223,-4.9868207,26.764677,-20.641226,34.16542881907607
1193865.0,-4.7403507,26.544529,-20.533545,33.89261593412135
1193866.9075584556,-4.4220943,26.367455,-20.406721,33.63379049626965
1193868.0636215333,-4.158874,26.197557,-20.311005,33.40875857954243
1193869.2196846113,-3.8908687,26.05877,-20.138714,33.162722366044314
1193870.375747689,-3.6898644,25.898445,-20.014284,32.93806486029603
1193871.5318107668,-3.4505734,25.718977,-19.861137,32.677775286088334
1193872.6878738445,-3.1969252,25.58976,-19.767815,32.493424834360255
1193873.8439369223,-2.8906329,25.431828,-19.602703,32.23972082525461
1193875.0,-2.5604117,25.254751,-19.497416,32.00792693728468
1193875.9075584556,-2.3091564,25.149464,-19.380163,31.83423409905641
1193877.0636215333,-2.1272953,25.020247,-19.22223,31.623286853319204
1193878.2196846113,-1.9478272,24.946068,-19.100193,31.478845469599626
1193879.375747689,-1.8114314,24.838387,-18.94944,31.293897628647585
1193880.5318107668,-1.6870002,24.768991,-18.779543,31.129088006585256
1193881.6878738445,-1.5984626,24.680454,-18.633575,30.96594919601755
1193882.8439369223,-1.5529974,24.567987,-18.40625,30.737401081078335
1193884.0,-1.5027462,24.460306,-18.128672,30.483004514628057
1193884.9075584556,-1.4405307,24.374163,-17.918097,30.285857272819943
1193886.0636215333,-1.3926725,24.304768,-17.726664,30.114712364473554
1193887.2196846113,-1.3831009,24.264088,-17.547195,29.976040214467115
1193888.375747689,-1.354386,24.254517,-17.379692,29.869209068121457
1193889.5318107668,-1.3089207,24.254517,-17.138008,29.727196075483498
1193890.6878738445,-1.2969562,24.261696,-16.94179,29.619862197269494
1193891.8439369223,-1.3113136,24.271267,-16.716856,29.50029185732863
